trial_num	cue_type	target_identity	target_category	choices	target_presence	response	response_correct	response_rt	trial_time	pre_cue	notsure	target_stim	timing1	actual_timing1	positions	a	b	c	d	e	f	g	h	i	j	k	l	m	n	o	p	q	r	s	t	u	v	w	x	y	z	aa	bb	cc	dd	ee	ff	gg	hh	ii	jj	kk	ll	mm	nn	oo	pp31	precue	flower	object	"['a', 'b']"	present	present	1	1.064198949	6.900050644	['flower']	['present']	['flower']	0.9	0.916600075	"[(0, 0)]"	['coast_43']	['present']	['coast_43']	0.1	0.4775016	"[(0, 0)]"	['flower_46']	['present']	['flower_46']	0.1	0.105804925	"[(0, 0)]"	['chair_72']	['present']	['chair_72']	0.1	0.100010352	"[(0, 0)]"	['car_6']	['present']	['car_6']	0.1	0.116621658	"[(0, 0)]"	['bathroom_3']	['present']	['bathroom_3']	0.1	0.100038503	"[(0, 0)]"	['woods_34']	['present']	['woods_34']	0.1	0.116558317	"[(0, 0)]"	[False]	['present']	[False]	0.9	0.916644942	"[(0, 0)]"32	nocue	FALSE	FALSE	"['a', 'b']"	absent	present	0	1.197737477	6.579909838	[False]	['present']	[False]	0.9	0.913297227	"[(0, 0)]"	['desert_54']	['present']	['desert_54']	0.1	0.100080731	"[(0, 0)]"	['shoe_4']	['present']	['shoe_4']	0.1	0.116655968	"[(0, 0)]"	['woods_48']	['present']	['woods_48']	0.1	0.116594093	"[(0, 0)]"	['bathroom_4']	['present']	['bathroom_4']	0.1	0.116658021	"[(0, 0)]"	['car_58']	['present']	['car_58']	0.1	0.116645118	"[(0, 0)]"	['flower_28']	['present']	['flower_28']	0.1	0.116663299	"[(0, 0)]"	[False]	['present']	[False]	0.9	0.916650514	"[(0, 0)]"33	precue	coast	scene	"['a', 'b']"	absent	absent	1	0.589231301	6.514532914	['coast']	['absent']	['coast']	0.9	0.914478722	"[(0, 0)]"	['chair_6']	['absent']	['chair_6']	0.1	0.100045835	"[(0, 0)]"	['flower_27']	['absent']	['flower_27']	0.1	0.100018563	"[(0, 0)]"	['desert_10']	['absent']	['desert_10']	0.1	0.116589987	"[(0, 0)]"	['woods_18']	['absent']	['woods_18']	0.1	0.116688519	"[(0, 0)]"	['bathroom_51']	['absent']	['bathroom_51']	0.1	0.1165677	"[(0, 0)]"	['shoe_66']	['absent']	['shoe_66']	0.1	0.100036157	"[(0, 0)]"	[False]	['absent']	[False]	0.9	0.916666056	"[(0, 0)]"34	nocue	FALSE	FALSE	"['a', 'b']"	absent	absent	1	0.786865262	6.54837076	[False]	['absent']	[False]	0.9	0.9150095	"[(0, 0)]"	['coast_4']	['absent']	['coast_4']	0.1	0.100123838	"[(0, 0)]"	['chair_42']	['absent']	['chair_42']	0.1	0.116567114	"[(0, 0)]"	['shoe_57']	['absent']	['shoe_57']	0.1	0.116661833	"[(0, 0)]"	['car_1']	['absent']	['car_1']	0.1	0.116653329	"[(0, 0)]"	['woods_55']	['absent']	['woods_55']	0.1	0.116641892	"[(0, 0)]"	['desert_18']	['absent']	['desert_18']	0.1	0.116659487	"[(0, 0)]"	[False]	['absent']	[False]	0.9	0.91652735	"[(0, 0)]"35	nocue	FALSE	FALSE	"['a', 'b']"	absent	present	0	0.734179802	6.547986606	[False]	['present']	[False]	0.9	0.914606284	"[(0, 0)]"	['car_68']	['present']	['car_68']	0.1	0.100046421	"[(0, 0)]"	['coast_9']	['present']	['coast_9']	0.1	0.11665978	"[(0, 0)]"	['bathroom_66']	['present']	['bathroom_66']	0.1	0.116634268	"[(0, 0)]"	['shoe_22']	['present']	['shoe_22']	0.1	0.116667111	"[(0, 0)]"	['woods_19']	['present']	['woods_19']	0.1	0.116621072	"[(0, 0)]"	['flower_22']	['present']	['flower_22']	0.1	0.116612861	"[(0, 0)]"	[False]	['present']	[False]	0.9	0.90004126	"[(0, 0)]"36	postcue	woods	scene	"['a', 'b']"	absent	present	0	1.21393765	6.581254965	[False]	['present']	[False]	0.9	0.914710094	"[(0, 0)]"	['coast_38']	['present']	['coast_38']	0.1	0.116653915	"[(0, 0)]"	['chair_43']	['present']	['chair_43']	0.1	0.116594093	"[(0, 0)]"	['desert_20']	['present']	['desert_20']	0.1	0.100050233	"[(0, 0)]"	['shoe_19']	['present']	['shoe_19']	0.1	0.116645118	"[(0, 0)]"	['flower_25']	['present']	['flower_25']	0.1	0.116652449	"[(0, 0)]"	['bathroom_43']	['present']	['bathroom_43']	0.1	0.116657434	"[(0, 0)]"	['woods']	['present']	['woods']	0.9	0.91660682	"[(0, 0)]"37	precue	shoe	object	"['a', 'b']"	present	present	1	0.737523412	6.531815171	['shoe']	['present']	['shoe']	0.9	0.915129145	"[(0, 0)]"	['woods_62']	['present']	['woods_62']	0.1	0.116539549	"[(0, 0)]"	['car_16']	['present']	['car_16']	0.1	0.100177503	"[(0, 0)]"	['shoe_41']	['present']	['shoe_41']	0.1	0.116577378	"[(0, 0)]"	['flower_63']	['present']	['flower_63']	0.1	0.10004994	"[(0, 0)]"	['desert_21']	['present']	['desert_21']	0.1	0.116558903	"[(0, 0)]"	['coast_25']	['present']	['coast_25']	0.1	0.116588814	"[(0, 0)]"	[False]	['present']	[False]	0.9	0.90002953	"[(0, 0)]"38	precue	shoe	object	"['a', 'b']"	absent	absent	1	0.511672869	6.564814329	['shoe']	['absent']	['shoe']	0.9	0.914833258	"[(0, 0)]"	['coast_39']	['absent']	['coast_39']	0.1	0.116656848	"[(0, 0)]"	['car_20']	['absent']	['car_20']	0.1	0.100040263	"[(0, 0)]"	['flower_29']	['absent']	['flower_29']	0.1	0.116589694	"[(0, 0)]"	['woods_40']	['absent']	['woods_40']	0.1	0.100051113	"[(0, 0)]"	['bathroom_31']	['absent']	['bathroom_31']	0.1	0.116594093	"[(0, 0)]"	['chair_22']	['absent']	['chair_22']	0.1	0.116659487	"[(0, 0)]"	[False]	['absent']	[False]	0.9	0.916637317	"[(0, 0)]"39	postcue	shoe	object	"['a', 'b']"	present	present	1	0.843438012	6.565094967	[False]	['present']	[False]	0.9	0.915052021	"[(0, 0)]"	['car_24']	['present']	['car_24']	0.1	0.116656261	"[(0, 0)]"	['desert_5']	['present']	['desert_5']	0.1	0.116655968	"[(0, 0)]"	['woods_13']	['present']	['woods_13']	0.1	0.116622831	"[(0, 0)]"	['shoe_47']	['present']	['shoe_47']	0.1	0.11658119	"[(0, 0)]"	['flower_41']	['present']	['flower_41']	0.1	0.100095687	"[(0, 0)]"	['coast_39']	['present']	['coast_39']	0.1	0.116599958	"[(0, 0)]"	['shoe']	['present']	['shoe']	0.9	0.916656965	"[(0, 0)]"40	postcue	shoe	object	"['a', 'b']"	present	present	1	0.707995427	6.581520354	[False]	['present']	[False]	0.9	0.914799534	"[(0, 0)]"	['woods_44']	['present']	['woods_44']	0.1	0.116642772	"[(0, 0)]"	['car_32']	['present']	['car_32']	0.1	0.116661246	"[(0, 0)]"	['shoe_4']	['present']	['shoe_4']	0.1	0.116665645	"[(0, 0)]"	['flower_49']	['present']	['flower_49']	0.1	0.116626936	"[(0, 0)]"	['desert_59']	['present']	['desert_59']	0.1	0.116655088	"[(0, 0)]"	['coast_11']	['present']	['coast_11']	0.1	0.116663592	"[(0, 0)]"	['shoe']	['present']	['shoe']	0.9	0.916653446	"[(0, 0)]"41	precue	woods	scene	"['a', 'b']"	present	absent	0	0.865030423	6.548395979	['woods']	['absent']	['woods']	0.9	0.915022989	"[(0, 0)]"	['chair_10']	['absent']	['chair_10']	0.1	0.116655382	"[(0, 0)]"	['desert_56']	['absent']	['desert_56']	0.1	0.11663896	"[(0, 0)]"	['shoe_20']	['absent']	['shoe_20']	0.1	0.116666818	"[(0, 0)]"	['woods_15']	['absent']	['woods_15']	0.1	0.116655382	"[(0, 0)]"	['coast_11']	['absent']	['coast_11']	0.1	0.100034398	"[(0, 0)]"	['flower_20']	['absent']	['flower_20']	0.1	0.116653622	"[(0, 0)]"	[False]	['absent']	[False]	0.9	0.900013401	"[(0, 0)]"42	postcue	flower	object	"['a', 'b']"	present	present	1	0.683800443	6.548020036	[False]	['present']	[False]	0.9	0.914681649	"[(0, 0)]"	['bathroom_66']	['present']	['bathroom_66']	0.1	0.116616966	"[(0, 0)]"	['car_45']	['present']	['car_45']	0.1	0.100031465	"[(0, 0)]"	['desert_34']	['present']	['desert_34']	0.1	0.116620192	"[(0, 0)]"	['flower_27']	['present']	['flower_27']	0.1	0.116640426	"[(0, 0)]"	['chair_29']	['present']	['chair_29']	0.1	0.116650103	"[(0, 0)]"	['woods_50']	['present']	['woods_50']	0.1	0.116652156	"[(0, 0)]"	['flower']	['present']	['flower']	0.9	0.900025425	"[(0, 0)]"43	postcue	woods	scene	"['a', 'b']"	absent	absent	1	0.85029121	6.581619765	[False]	['absent']	[False]	0.9	0.914907743	"[(0, 0)]"	['coast_58']	['absent']	['coast_58']	0.1	0.116664472	"[(0, 0)]"	['flower_36']	['absent']	['flower_36']	0.1	0.116655968	"[(0, 0)]"	['chair_80']	['absent']	['chair_80']	0.1	0.116635147	"[(0, 0)]"	['desert_45']	['absent']	['desert_45']	0.1	0.116655088	"[(0, 0)]"	['bathroom_57']	['absent']	['bathroom_57']	0.1	0.116654209	"[(0, 0)]"	['shoe_18']	['absent']	['shoe_18']	0.1	0.116647171	"[(0, 0)]"	['woods']	['absent']	['woods']	0.9	0.900030996	"[(0, 0)]"44	precue	desert	scene	"['a', 'b']"	present	present	1	0.696555249	6.564952448	['desert']	['present']	['desert']	0.9	0.91501038	"[(0, 0)]"	['car_43']	['present']	['car_43']	0.1	0.116667698	"[(0, 0)]"	['woods_4']	['present']	['woods_4']	0.1	0.116642185	"[(0, 0)]"	['flower_77']	['present']	['flower_77']	0.1	0.116658021	"[(0, 0)]"	['shoe_24']	['present']	['shoe_24']	0.1	0.116656848	"[(0, 0)]"	['desert_26']	['present']	['desert_26']	0.1	0.116651569	"[(0, 0)]"	['bathroom_46']	['present']	['bathroom_46']	0.1	0.100033518	"[(0, 0)]"	[False]	['present']	[False]	0.9	0.900043019	"[(0, 0)]"45	precue	car	object	"['a', 'b']"	present	present	1	0.672076108	6.548348473	['car']	['present']	['car']	0.9	0.914907156	"[(0, 0)]"	['bathroom_54']	['present']	['bathroom_54']	0.1	0.11664981	"[(0, 0)]"	['car_47']	['present']	['car_47']	0.1	0.116661246	"[(0, 0)]"	['coast_7']	['present']	['coast_7']	0.1	0.116649517	"[(0, 0)]"	['flower_59']	['present']	['flower_59']	0.1	0.100010352	"[(0, 0)]"	['woods_44']	['present']	['woods_44']	0.1	0.116619312	"[(0, 0)]"	['chair_3']	['present']	['chair_3']	0.1	0.116645704	"[(0, 0)]"	[False]	['present']	[False]	0.9	0.916578081	"[(0, 0)]"46	nocue	FALSE	FALSE	"['a', 'b']"	absent	present	0	0.709006544	6.531604619	[False]	['present']	[False]	0.9	0.914899825	"[(0, 0)]"	['bathroom_50']	['present']	['bathroom_50']	0.1	0.100045248	"[(0, 0)]"	['chair_49']	['present']	['chair_49']	0.1	0.116639839	"[(0, 0)]"	['shoe_49']	['present']	['shoe_49']	0.1	0.100071054	"[(0, 0)]"	['desert_53']	['present']	['desert_53']	0.1	0.116594973	"[(0, 0)]"	['woods_34']	['present']	['woods_34']	0.1	0.116566234	"[(0, 0)]"	['car_14']	['present']	['car_14']	0.1	0.100110642	"[(0, 0)]"	[False]	['present']	[False]	0.9	0.916662537	"[(0, 0)]"47	postcue	chair	object	"['a', 'b']"	absent	absent	1	0.655243107	6.564944531	[False]	['absent']	[False]	0.9	0.914864342	"[(0, 0)]"	['shoe_28']	['absent']	['shoe_28']	0.1	0.10009686	"[(0, 0)]"	['bathroom_35']	['absent']	['bathroom_35']	0.1	0.116609928	"[(0, 0)]"	['woods_15']	['absent']	['woods_15']	0.1	0.116585589	"[(0, 0)]"	['coast_17']	['absent']	['coast_17']	0.1	0.116649517	"[(0, 0)]"	['flower_7']	['absent']	['flower_7']	0.1	0.100008299	"[(0, 0)]"	['car_45']	['absent']	['car_45']	0.1	0.116627523	"[(0, 0)]"	['chair']	['absent']	['chair']	0.9	0.916642596	"[(0, 0)]"48	doublecue	"('chair', 'coast')"	"('object', 'scene')"	"['a', 'b']"	"('present', 'present')"	absent	0	1.820748562	6.548368414	['chair']	['absent']	['chair']	0.9	0.914938827	"[(0, 0)]"	['bathroom_16']	['absent']	['bathroom_16']	0.1	0.116575032	"[(0, 0)]"	['woods_6']	['absent']	['woods_6']	0.1	0.116653329	"[(0, 0)]"	['chair_2']	['absent']	['chair_2']	0.1	0.116658607	"[(0, 0)]"	['flower_17']	['absent']	['flower_17']	0.1	0.116666525	"[(0, 0)]"	['coast_12']	['absent']	['coast_12']	0.1	0.116642185	"[(0, 0)]"	['shoe_50']	['absent']	['shoe_50']	0.1	0.116653915	"[(0, 0)]"	['coast']	['absent']	['coast']	0.9	0.900032756	"[(0, 0)]"49	nocue	FALSE	FALSE	"['a', 'b']"	absent	absent	1	0.639448495	6.564963592	[False]	['absent']	[False]	0.9	0.914867275	"[(0, 0)]"	['bathroom_59']	['absent']	['bathroom_59']	0.1	0.116652156	"[(0, 0)]"	['car_60']	['absent']	['car_60']	0.1	0.116667405	"[(0, 0)]"	['desert_10']	['absent']	['desert_10']	0.1	0.11665069	"[(0, 0)]"	['flower_55']	['absent']	['flower_55']	0.1	0.116645704	"[(0, 0)]"	['chair_29']	['absent']	['chair_29']	0.1	0.116666525	"[(0, 0)]"	['woods_65']	['absent']	['woods_65']	0.1	0.1166589	"[(0, 0)]"	[False]	['absent']	[False]	0.9	0.916606233	"[(0, 0)]"50	precue	desert	scene	"['a', 'b']"	present	absent	0	1.539864232	6.531588197	['desert']	['absent']	['desert']	0.9	0.914888975	"[(0, 0)]"	['bathroom_46']	['absent']	['bathroom_46']	0.1	0.100052579	"[(0, 0)]"	['chair_40']	['absent']	['chair_40']	0.1	0.100044075	"[(0, 0)]"	['shoe_27']	['absent']	['shoe_27']	0.1	0.116635147	"[(0, 0)]"	['desert_24']	['absent']	['desert_24']	0.1	0.100001554	"[(0, 0)]"	['woods_20']	['absent']	['woods_20']	0.1	0.116650983	"[(0, 0)]"	['car_38']	['absent']	['car_38']	0.1	0.116625764	"[(0, 0)]"	[False]	['absent']	[False]	0.9	0.916639077	"[(0, 0)]"51	postcue	bathroom	scene	"['a', 'b']"	absent	absent	1	0.905616191	6.548217098	[False]	['absent']	[False]	0.9	0.914795136	"[(0, 0)]"	['flower_27']	['absent']	['flower_27']	0.1	0.100091288	"[(0, 0)]"	['coast_47']	['absent']	['coast_47']	0.1	0.116655382	"[(0, 0)]"	['chair_22']	['absent']	['chair_22']	0.1	0.116655968	"[(0, 0)]"	['car_17']	['absent']	['car_17']	0.1	0.1165938	"[(0, 0)]"	['desert_43']	['absent']	['desert_43']	0.1	0.100044955	"[(0, 0)]"	['woods_58']	['absent']	['woods_58']	0.1	0.116647464	"[(0, 0)]"	['bathroom']	['absent']	['bathroom']	0.9	0.916635851	"[(0, 0)]"52	postcue	chair	object	"['a', 'b']"	present	present	1	0.532724532	6.564960659	[False]	['present']	[False]	0.9	0.914905397	"[(0, 0)]"	['desert_40']	['present']	['desert_40']	0.1	0.100124718	"[(0, 0)]"	['flower_41']	['present']	['flower_41']	0.1	0.116606702	"[(0, 0)]"	['chair_3']	['present']	['chair_3']	0.1	0.100036744	"[(0, 0)]"	['woods_45']	['present']	['woods_45']	0.1	0.11666066	"[(0, 0)]"	['bathroom_19']	['present']	['bathroom_19']	0.1	0.116599664	"[(0, 0)]"	['shoe_31']	['present']	['shoe_31']	0.1	0.116658607	"[(0, 0)]"	['chair']	['present']	['chair']	0.9	0.916653739	"[(0, 0)]"53	postcue	car	object	"['a', 'b']"	absent	absent	1	0.514779535	6.56484512	[False]	['absent']	[False]	0.9	0.914891028	"[(0, 0)]"	['coast_48']	['absent']	['coast_48']	0.1	0.100032052	"[(0, 0)]"	['shoe_39']	['absent']	['shoe_39']	0.1	0.116641306	"[(0, 0)]"	['chair_29']	['absent']	['chair_29']	0.1	0.116657728	"[(0, 0)]"	['desert_32']	['absent']	['desert_32']	0.1	0.116655382	"[(0, 0)]"	['flower_37']	['absent']	['flower_37']	0.1	0.116650103	"[(0, 0)]"	['bathroom_42']	['absent']	['bathroom_42']	0.1	0.116658314	"[(0, 0)]"	['car']	['absent']	['car']	0.9	0.916600368	"[(0, 0)]"54	precue	shoe	object	"['a', 'b']"	absent	absent	1	0.54831387	6.548418266	['shoe']	['absent']	['shoe']	0.9	0.914968738	"[(0, 0)]"	['flower_65']	['absent']	['flower_65']	0.1	0.116638373	"[(0, 0)]"	['desert_40']	['absent']	['desert_40']	0.1	0.100056978	"[(0, 0)]"	['woods_20']	['absent']	['woods_20']	0.1	0.116604943	"[(0, 0)]"	['bathroom_17']	['absent']	['bathroom_17']	0.1	0.116668871	"[(0, 0)]"	['chair_16']	['absent']	['chair_16']	0.1	0.116649223	"[(0, 0)]"	['car_57']	['absent']	['car_57']	0.1	0.116659194	"[(0, 0)]"	[False]	['absent']	[False]	0.9	0.916597729	"[(0, 0)]"55	precue	bathroom	scene	"['a', 'b']"	present	present	1	0.512827385	6.564500847	['bathroom']	['present']	['bathroom']	0.9	0.914451156	"[(0, 0)]"	['flower_33']	['present']	['flower_33']	0.1	0.116633095	"[(0, 0)]"	['woods_9']	['present']	['woods_9']	0.1	0.100042609	"[(0, 0)]"	['coast_31']	['present']	['coast_31']	0.1	0.116648344	"[(0, 0)]"	['bathroom_46']	['present']	['bathroom_46']	0.1	0.11666154	"[(0, 0)]"	['car_22']	['present']	['car_22']	0.1	0.116610221	"[(0, 0)]"	['shoe_25']	['present']	['shoe_25']	0.1	0.116647757	"[(0, 0)]"	[False]	['present']	[False]	0.9	0.916532921	"[(0, 0)]"56	precue	bathroom	scene	"['a', 'b']"	absent	absent	1	0.558449682	6.531579693	['bathroom']	['absent']	['bathroom']	0.9	0.914862289	"[(0, 0)]"	['flower_52']	['absent']	['flower_52']	0.1	0.100097153	"[(0, 0)]"	['coast_26']	['absent']	['coast_26']	0.1	0.116658314	"[(0, 0)]"	['chair_41']	['absent']	['chair_41']	0.1	0.116614034	"[(0, 0)]"	['car_14']	['absent']	['car_14']	0.1	0.10003909	"[(0, 0)]"	['desert_28']	['absent']	['desert_28']	0.1	0.116595852	"[(0, 0)]"	['woods_32']	['absent']	['woods_32']	0.1	0.100044662	"[(0, 0)]"	[False]	['absent']	[False]	0.9	0.900078502	"[(0, 0)]"57	precue	woods	scene	"['a', 'b']"	absent	absent	1	0.528845452	6.581385754	['woods']	['absent']	['woods']	0.9	0.914670799	"[(0, 0)]"	['shoe_48']	['absent']	['shoe_48']	0.1	0.100068121	"[(0, 0)]"	['desert_32']	['absent']	['desert_32']	0.1	0.116607582	"[(0, 0)]"	['car_39']	['absent']	['car_39']	0.1	0.116644238	"[(0, 0)]"	['coast_20']	['absent']	['coast_20']	0.1	0.116662126	"[(0, 0)]"	['chair_52']	['absent']	['chair_52']	0.1	0.116654502	"[(0, 0)]"	['bathroom_50']	['absent']	['bathroom_50']	0.1	0.116659487	"[(0, 0)]"	[False]	['absent']	[False]	0.9	0.916654326	"[(0, 0)]"58	nocue	FALSE	FALSE	"['a', 'b']"	absent	present	0	0.719758176	6.564982653	[False]	['present']	[False]	0.9	0.914972257	"[(0, 0)]"	['desert_33']	['present']	['desert_33']	0.1	0.10013029	"[(0, 0)]"	['flower_44']	['present']	['flower_44']	0.1	0.116563302	"[(0, 0)]"	['chair_25']	['present']	['chair_25']	0.1	0.116646877	"[(0, 0)]"	['woods_43']	['present']	['woods_43']	0.1	0.11664893	"[(0, 0)]"	['bathroom_50']	['present']	['bathroom_50']	0.1	0.116658021	"[(0, 0)]"	['shoe_16']	['present']	['shoe_16']	0.1	0.116600837	"[(0, 0)]"	[False]	['present']	[False]	0.9	0.916662537	"[(0, 0)]"59	postcue	flower	object	"['a', 'b']"	present	present	1	0.573494459	6.547978981	[False]	['present']	[False]	0.9	0.914662295	"[(0, 0)]"	['bathroom_25']	['present']	['bathroom_25']	0.1	0.100034984	"[(0, 0)]"	['chair_49']	['present']	['chair_49']	0.1	0.116536909	"[(0, 0)]"	['flower_52']	['present']	['flower_52']	0.1	0.116668284	"[(0, 0)]"	['shoe_16']	['present']	['shoe_16']	0.1	0.100029706	"[(0, 0)]"	['desert_6']	['present']	['desert_6']	0.1	0.116655088	"[(0, 0)]"	['woods_40']	['present']	['woods_40']	0.1	0.116654795	"[(0, 0)]"	['flower']	['present']	['flower']	0.9	0.900045072	"[(0, 0)]"60	nocue	FALSE	FALSE	"['a', 'b']"	absent	absent	1	0.580994854	6.565084996	[False]	['absent']	[False]	0.9	0.915108617	"[(0, 0)]"	['coast_17']	['absent']	['coast_17']	0.1	0.116633095	"[(0, 0)]"	['flower_48']	['absent']	['flower_48']	0.1	0.116647464	"[(0, 0)]"	['chair_23']	['absent']	['chair_23']	0.1	0.116667698	"[(0, 0)]"	['car_54']	['absent']	['car_54']	0.1	0.100041436	"[(0, 0)]"	['bathroom_42']	['absent']	['bathroom_42']	0.1	0.116587641	"[(0, 0)]"	['woods_65']	['absent']	['woods_65']	0.1	0.100048767	"[(0, 0)]"	[False]	['absent']	[False]	0.9	0.916539373	"[(0, 0)]"61	precue	bathroom	scene	"['a', 'b']"	absent	absent	1	0.493597377	6.855544155	['bathroom']	['absent']	['bathroom']	0.9	0.905483643	"[(0, 0)]"	['shoe_11']	['absent']	['shoe_11']	0.1	0.419237691	"[(0, 0)]"	['desert_24']	['absent']	['desert_24']	0.1	0.114145768	"[(0, 0)]"	['coast_66']	['absent']	['coast_66']	0.1	0.116589108	"[(0, 0)]"	['woods_21']	['absent']	['woods_21']	0.1	0.10003997	"[(0, 0)]"	['car_18']	['absent']	['car_18']	0.1	0.116611101	"[(0, 0)]"	['flower_28']	['absent']	['flower_28']	0.1	0.116604356	"[(0, 0)]"	[False]	['absent']	[False]	0.9	0.916654326	"[(0, 0)]"62	doublecue	"('desert', 'car')"	"('scene', 'object')"	"['a', 'b']"	"('present', 'present')"	absent	0	0.583468692	6.581644105	['desert']	['absent']	['desert']	0.9	0.914913608	"[(0, 0)]"	['chair_2']	['absent']	['chair_2']	0.1	0.116642772	"[(0, 0)]"	['bathroom_36']	['absent']	['bathroom_36']	0.1	0.100047887	"[(0, 0)]"	['desert_2']	['absent']	['desert_2']	0.1	0.11660201	"[(0, 0)]"	['car_25']	['absent']	['car_25']	0.1	0.116654795	"[(0, 0)]"	['flower_9']	['absent']	['flower_9']	0.1	0.116656261	"[(0, 0)]"	['coast_6']	['absent']	['coast_6']	0.1	0.11664805	"[(0, 0)]"	['car']	['absent']	['car']	0.9	0.916657258	"[(0, 0)]"63	precue	woods	scene	"['a', 'b']"	absent	absent	1	0.813012982	6.547956988	['woods']	['absent']	['woods']	0.9	0.914562884	"[(0, 0)]"	['coast_66']	['absent']	['coast_66']	0.1	0.100027067	"[(0, 0)]"	['chair_18']	['absent']	['chair_18']	0.1	0.100033518	"[(0, 0)]"	['desert_32']	['absent']	['desert_32']	0.1	0.116602304	"[(0, 0)]"	['shoe_7']	['absent']	['shoe_7']	0.1	0.116663006	"[(0, 0)]"	['flower_45']	['absent']	['flower_45']	0.1	0.116650103	"[(0, 0)]"	['bathroom_9']	['absent']	['bathroom_9']	0.1	0.116647464	"[(0, 0)]"	[False]	['absent']	[False]	0.9	0.916603594	"[(0, 0)]"64	nocue	FALSE	FALSE	"['a', 'b']"	absent	absent	1	0.645399076	6.548126778	[False]	['absent']	[False]	0.9	0.914738539	"[(0, 0)]"	['desert_43']	['absent']	['desert_43']	0.1	0.116645118	"[(0, 0)]"	['coast_28']	['absent']	['coast_28']	0.1	0.116622538	"[(0, 0)]"	['car_61']	['absent']	['car_61']	0.1	0.100036744	"[(0, 0)]"	['bathroom_20']	['absent']	['bathroom_20']	0.1	0.100047301	"[(0, 0)]"	['chair_43']	['absent']	['chair_43']	0.1	0.116583829	"[(0, 0)]"	['shoe_6']	['absent']	['shoe_6']	0.1	0.116651276	"[(0, 0)]"	[False]	['absent']	[False]	0.9	0.916657552	"[(0, 0)]"65	nocue	FALSE	FALSE	"['a', 'b']"	absent	present	0	0.624023082	6.547926197	[False]	['present']	[False]	0.9	0.914537958	"[(0, 0)]"	['car_43']	['present']	['car_43']	0.1	0.116540428	"[(0, 0)]"	['woods_68']	['present']	['woods_68']	0.1	0.100033811	"[(0, 0)]"	['flower_52']	['present']	['flower_52']	0.1	0.11666066	"[(0, 0)]"	['shoe_56']	['present']	['shoe_56']	0.1	0.11664981	"[(0, 0)]"	['desert_50']	['present']	['desert_50']	0.1	0.116662419	"[(0, 0)]"	['bathroom_47']	['present']	['bathroom_47']	0.1	0.116641306	"[(0, 0)]"	[False]	['present']	[False]	0.9	0.900002845	"[(0, 0)]"66	precue	coast	scene	"['a', 'b']"	present	present	1	0.705832725	6.564933094	['coast']	['present']	['coast']	0.9	0.914826806	"[(0, 0)]"	['flower_43']	['present']	['flower_43']	0.1	0.100081611	"[(0, 0)]"	['chair_12']	['present']	['chair_12']	0.1	0.116637787	"[(0, 0)]"	['shoe_56']	['present']	['shoe_56']	0.1	0.116598491	"[(0, 0)]"	['coast_57']	['present']	['coast_57']	0.1	0.116653329	"[(0, 0)]"	['woods_53']	['present']	['woods_53']	0.1	0.116644238	"[(0, 0)]"	['bathroom_31']	['present']	['bathroom_31']	0.1	0.116667111	"[(0, 0)]"	[False]	['present']	[False]	0.9	0.90002953	"[(0, 0)]"67	precue	flower	object	"['a', 'b']"	present	present	1	1.045586227	6.531659163	['flower']	['present']	['flower']	0.9	0.914894253	"[(0, 0)]"	['bathroom_23']	['present']	['bathroom_23']	0.1	0.116645704	"[(0, 0)]"	['chair_57']	['present']	['chair_57']	0.1	0.116651276	"[(0, 0)]"	['flower_48']	['present']	['flower_48']	0.1	0.116710512	"[(0, 0)]"	['shoe_65']	['present']	['shoe_65']	0.1	0.116592333	"[(0, 0)]"	['desert_26']	['present']	['desert_26']	0.1	0.100048474	"[(0, 0)]"	['woods_11']	['present']	['woods_11']	0.1	0.116603477	"[(0, 0)]"	[False]	['present']	[False]	0.9	0.916591278	"[(0, 0)]"68	postcue	flower	object	"['a', 'b']"	absent	present	0	0.578391108	6.564826352	[False]	['present']	[False]	0.9	0.914831205	"[(0, 0)]"	['shoe_33']	['present']	['shoe_33']	0.1	0.100032932	"[(0, 0)]"	['chair_55']	['present']	['chair_55']	0.1	0.116570046	"[(0, 0)]"	['coast_18']	['present']	['coast_18']	0.1	0.100025601	"[(0, 0)]"	['woods_19']	['present']	['woods_19']	0.1	0.116823706	"[(0, 0)]"	['car_12']	['present']	['car_12']	0.1	0.116413159	"[(0, 0)]"	['bathroom_27']	['present']	['bathroom_27']	0.1	0.116656261	"[(0, 0)]"	['flower']	['present']	['flower']	0.9	0.916612685	"[(0, 0)]"69	precue	car	object	"['a', 'b']"	absent	absent	1	0.80316338	6.531634237	['car']	['absent']	['car']	0.9	0.914876365	"[(0, 0)]"	['desert_25']	['absent']	['desert_25']	0.1	0.100029999	"[(0, 0)]"	['bathroom_64']	['absent']	['bathroom_64']	0.1	0.116596145	"[(0, 0)]"	['flower_17']	['absent']	['flower_17']	0.1	0.116651276	"[(0, 0)]"	['shoe_48']	['absent']	['shoe_48']	0.1	0.116657141	"[(0, 0)]"	['chair_20']	['absent']	['chair_20']	0.1	0.100046421	"[(0, 0)]"	['woods_21']	['absent']	['woods_21']	0.1	0.116654209	"[(0, 0)]"	[False]	['absent']	[False]	0.9	0.90000607	"[(0, 0)]"70	postcue	desert	scene	"['a', 'b']"	absent	present	0	0.750923364	6.581652022	[False]	['present']	[False]	0.9	0.914942933	"[(0, 0)]"	['bathroom_44']	['present']	['bathroom_44']	0.1	0.100021495	"[(0, 0)]"	['shoe_10']	['present']	['shoe_10']	0.1	0.116652742	"[(0, 0)]"	['woods_31']	['present']	['woods_31']	0.1	0.116670337	"[(0, 0)]"	['coast_15']	['present']	['coast_15']	0.1	0.116658314	"[(0, 0)]"	['chair_26']	['present']	['chair_26']	0.1	0.116653036	"[(0, 0)]"	['car_8']	['present']	['car_8']	0.1	0.116648344	"[(0, 0)]"	['desert']	['present']	['desert']	0.9	0.916648168	"[(0, 0)]"71	postcue	chair	object	"['a', 'b']"	absent	absent	1	0.522493121	6.548273109	[False]	['absent']	[False]	0.9	0.914882524	"[(0, 0)]"	['flower_42']	['absent']	['flower_42']	0.1	0.100031759	"[(0, 0)]"	['car_51']	['absent']	['car_51']	0.1	0.116598491	"[(0, 0)]"	['desert_28']	['absent']	['desert_28']	0.1	0.100047008	"[(0, 0)]"	['coast_3']	['absent']	['coast_3']	0.1	0.11665069	"[(0, 0)]"	['shoe_15']	['absent']	['shoe_15']	0.1	0.11665069	"[(0, 0)]"	['woods_53']	['absent']	['woods_53']	0.1	0.116656261	"[(0, 0)]"	['chair']	['absent']	['chair']	0.9	0.916681891	"[(0, 0)]"72	precue	car	object	"['a', 'b']"	absent	absent	1	0.595079539	6.548299501	['car']	['absent']	['car']	0.9	0.91495173	"[(0, 0)]"	['coast_42']	['absent']	['coast_42']	0.1	0.100069881	"[(0, 0)]"	['chair_43']	['absent']	['chair_43']	0.1	0.116540428	"[(0, 0)]"	['desert_14']	['absent']	['desert_14']	0.1	0.116598198	"[(0, 0)]"	['flower_38']	['absent']	['flower_38']	0.1	0.116659487	"[(0, 0)]"	['shoe_42']	['absent']	['shoe_42']	0.1	0.100039383	"[(0, 0)]"	['bathroom_31']	['absent']	['bathroom_31']	0.1	0.116651569	"[(0, 0)]"	[False]	['absent']	[False]	0.9	0.916634385	"[(0, 0)]"73	postcue	bathroom	scene	"['a', 'b']"	present	absent	0	0.60947272	6.565126344	[False]	['absent']	[False]	0.9	0.915049968	"[(0, 0)]"	['flower_16']	['absent']	['flower_16']	0.1	0.100051113	"[(0, 0)]"	['woods_60']	['absent']	['woods_60']	0.1	0.116651863	"[(0, 0)]"	['coast_37']	['absent']	['coast_37']	0.1	0.11663632	"[(0, 0)]"	['bathroom_10']	['absent']	['bathroom_10']	0.1	0.116660367	"[(0, 0)]"	['car_57']	['absent']	['car_57']	0.1	0.116646584	"[(0, 0)]"	['shoe_34']	['absent']	['shoe_34']	0.1	0.116657141	"[(0, 0)]"	['bathroom']	['absent']	['bathroom']	0.9	0.91666195	"[(0, 0)]"74	postcue	desert	scene	"['a', 'b']"	absent	absent	1	0.471391492	6.548475743	[False]	['absent']	[False]	0.9	0.915015658	"[(0, 0)]"	['shoe_27']	['absent']	['shoe_27']	0.1	0.100113575	"[(0, 0)]"	['bathroom_57']	['absent']	['bathroom_57']	0.1	0.116602597	"[(0, 0)]"	['car_77']	['absent']	['car_77']	0.1	0.100033518	"[(0, 0)]"	['coast_35']	['absent']	['coast_35']	0.1	0.116660953	"[(0, 0)]"	['flower_9']	['absent']	['flower_9']	0.1	0.11663896	"[(0, 0)]"	['woods_5']	['absent']	['woods_5']	0.1	0.116663592	"[(0, 0)]"	['desert']	['absent']	['desert']	0.9	0.916657845	"[(0, 0)]"75	postcue	desert	scene	"['a', 'b']"	absent	absent	1	0.483575346	6.548381317	[False]	['absent']	[False]	0.9	0.915127679	"[(0, 0)]"	['coast_2']	['absent']	['coast_2']	0.1	0.100048181	"[(0, 0)]"	['bathroom_46']	['absent']	['bathroom_46']	0.1	0.116629869	"[(0, 0)]"	['chair_1']	['absent']	['chair_1']	0.1	0.100007419	"[(0, 0)]"	['shoe_41']	['absent']	['shoe_41']	0.1	0.116592627	"[(0, 0)]"	['flower_31']	['absent']	['flower_31']	0.1	0.100043195	"[(0, 0)]"	['woods_5']	['absent']	['woods_5']	0.1	0.11659204	"[(0, 0)]"	['desert']	['absent']	['desert']	0.9	0.916621189	"[(0, 0)]"76	nocue	FALSE	FALSE	"['a', 'b']"	absent	present	0	0.636846802	6.531608724	[False]	['present']	[False]	0.9	0.914858477	"[(0, 0)]"	['chair_39']	['present']	['chair_39']	0.1	0.10002824	"[(0, 0)]"	['desert_21']	['present']	['desert_21']	0.1	0.116606996	"[(0, 0)]"	['shoe_37']	['present']	['shoe_37']	0.1	0.116665059	"[(0, 0)]"	['woods_44']	['present']	['woods_44']	0.1	0.116645411	"[(0, 0)]"	['coast_52']	['present']	['coast_52']	0.1	0.100044075	"[(0, 0)]"	['flower_55']	['present']	['flower_55']	0.1	0.116601717	"[(0, 0)]"	[False]	['present']	[False]	0.9	0.900048298	"[(0, 0)]"77	nocue	FALSE	FALSE	"['a', 'b']"	absent	absent	1	0.579194021	6.548363429	[False]	['absent']	[False]	0.9	0.91505466	"[(0, 0)]"	['car_51']	['absent']	['car_51']	0.1	0.100054046	"[(0, 0)]"	['chair_28']	['absent']	['chair_28']	0.1	0.116649223	"[(0, 0)]"	['desert_16']	['absent']	['desert_16']	0.1	0.116621072	"[(0, 0)]"	['woods_29']	['absent']	['woods_29']	0.1	0.100018269	"[(0, 0)]"	['flower_16']	['absent']	['flower_16']	0.1	0.116660073	"[(0, 0)]"	['coast_39']	['absent']	['coast_39']	0.1	0.116650396	"[(0, 0)]"	[False]	['absent']	[False]	0.9	0.91665022	"[(0, 0)]"78	postcue	desert	scene	"['a', 'b']"	absent	absent	1	0.62015192	6.531250962	[False]	['absent']	[False]	0.9	0.914489865	"[(0, 0)]"	['shoe_43']	['absent']	['shoe_43']	0.1	0.11663808	"[(0, 0)]"	['coast_63']	['absent']	['coast_63']	0.1	0.100047887	"[(0, 0)]"	['flower_47']	['absent']	['flower_47']	0.1	0.116609635	"[(0, 0)]"	['woods_35']	['absent']	['woods_35']	0.1	0.100029119	"[(0, 0)]"	['bathroom_48']	['absent']	['bathroom_48']	0.1	0.116662713	"[(0, 0)]"	['car_4']	['absent']	['car_4']	0.1	0.116651569	"[(0, 0)]"	['desert']	['absent']	['desert']	0.9	0.916647288	"[(0, 0)]"79	precue	coast	scene	"['a', 'b']"	present	present	1	0.708813294	6.565114614	['coast']	['present']	['coast']	0.9	0.915060232	"[(0, 0)]"	['bathroom_54']	['present']	['bathroom_54']	0.1	0.100103604	"[(0, 0)]"	['chair_36']	['present']	['chair_36']	0.1	0.116662419	"[(0, 0)]"	['coast_15']	['present']	['coast_15']	0.1	0.116649223	"[(0, 0)]"	['flower_39']	['present']	['flower_39']	0.1	0.116599958	"[(0, 0)]"	['car_7']	['present']	['car_7']	0.1	0.100052286	"[(0, 0)]"	['desert_54']	['present']	['desert_54']	0.1	0.116595266	"[(0, 0)]"	[False]	['present']	[False]	0.9	0.916662244	"[(0, 0)]"80	doublecue	"('car', 'coast')"	"('object', 'scene')"	"['a', 'b']"	"('present', 'present')"	absent	0	0.473119894	6.531559752	['car']	['absent']	['car']	0.9	0.914816543	"[(0, 0)]"	['shoe_25']	['absent']	['shoe_25']	0.1	0.100054339	"[(0, 0)]"	['car_18']	['absent']	['car_18']	0.1	0.116657728	"[(0, 0)]"	['coast_59']	['absent']	['coast_59']	0.1	0.116602304	"[(0, 0)]"	['flower_33']	['absent']	['flower_33']	0.1	0.11664893	"[(0, 0)]"	['chair_16']	['absent']	['chair_16']	0.1	0.100044662	"[(0, 0)]"	['desert_24']	['absent']	['desert_24']	0.1	0.11659116	"[(0, 0)]"	['coast']	['absent']	['coast']	0.9	0.900034515	"[(0, 0)]"81	precue	flower	object	"['a', 'b']"	present	present	1	0.798911582	6.564901717	['flower']	['present']	['flower']	0.9	0.914786338	"[(0, 0)]"	['car_64']	['present']	['car_64']	0.1	0.116664765	"[(0, 0)]"	['chair_56']	['present']	['chair_56']	0.1	0.11666066	"[(0, 0)]"	['desert_50']	['present']	['desert_50']	0.1	0.116647757	"[(0, 0)]"	['woods_33']	['present']	['woods_33']	0.1	0.116647464	"[(0, 0)]"	['flower_25']	['present']	['flower_25']	0.1	0.116665938	"[(0, 0)]"	['coast_27']	['present']	['coast_27']	0.1	0.116646584	"[(0, 0)]"	[False]	['present']	[False]	0.9	0.91665198	"[(0, 0)]"82	postcue	bathroom	scene	"['a', 'b']"	present	absent	0	0.737407873	6.548090122	[False]	['absent']	[False]	0.9	0.914675197	"[(0, 0)]"	['shoe_7']	['absent']	['shoe_7']	0.1	0.100004487	"[(0, 0)]"	['woods_19']	['absent']	['woods_19']	0.1	0.116657141	"[(0, 0)]"	['bathroom_59']	['absent']	['bathroom_59']	0.1	0.116650103	"[(0, 0)]"	['car_30']	['absent']	['car_30']	0.1	0.116645704	"[(0, 0)]"	['flower_9']	['absent']	['flower_9']	0.1	0.11665978	"[(0, 0)]"	['desert_18']	['absent']	['desert_18']	0.1	0.116667698	"[(0, 0)]"	['bathroom']	['absent']	['bathroom']	0.9	0.916649341	"[(0, 0)]"83	precue	desert	scene	"['a', 'b']"	present	present	1	0.558766682	6.565170918	['desert']	['present']	['desert']	0.9	0.914992491	"[(0, 0)]"	['car_65']	['present']	['car_65']	0.1	0.116643358	"[(0, 0)]"	['bathroom_26']	['present']	['bathroom_26']	0.1	0.116661246	"[(0, 0)]"	['desert_34']	['present']	['desert_34']	0.1	0.116645998	"[(0, 0)]"	['shoe_16']	['present']	['shoe_16']	0.1	0.116655675	"[(0, 0)]"	['coast_41']	['present']	['coast_41']	0.1	0.116609928	"[(0, 0)]"	['chair_1']	['present']	['chair_1']	0.1	0.100032345	"[(0, 0)]"	[False]	['present']	[False]	0.9	0.916659898	"[(0, 0)]"84	postcue	shoe	object	"['a', 'b']"	absent	absent	1	0.747723738	6.547980154	[False]	['absent']	[False]	0.9	0.914539717	"[(0, 0)]"	['coast_62']	['absent']	['coast_62']	0.1	0.116665645	"[(0, 0)]"	['car_25']	['absent']	['car_25']	0.1	0.116597318	"[(0, 0)]"	['flower_35']	['absent']	['flower_35']	0.1	0.100035278	"[(0, 0)]"	['woods_9']	['absent']	['woods_9']	0.1	0.116657141	"[(0, 0)]"	['bathroom_34']	['absent']	['bathroom_34']	0.1	0.116702888	"[(0, 0)]"	['chair_56']	['absent']	['chair_56']	0.1	0.116555971	"[(0, 0)]"	['shoe']	['absent']	['shoe']	0.9	0.916650514	"[(0, 0)]"85	precue	chair	object	"['a', 'b']"	absent	absent	1	0.453356762	6.548240851	['chair']	['absent']	['chair']	0.9	0.914895133	"[(0, 0)]"	['flower_19']	['absent']	['flower_19']	0.1	0.100041436	"[(0, 0)]"	['car_65']	['absent']	['car_65']	0.1	0.11664805	"[(0, 0)]"	['desert_41']	['absent']	['desert_41']	0.1	0.116657434	"[(0, 0)]"	['coast_15']	['absent']	['coast_15']	0.1	0.116610221	"[(0, 0)]"	['shoe_3']	['absent']	['shoe_3']	0.1	0.100034691	"[(0, 0)]"	['woods_23']	['absent']	['woods_23']	0.1	0.116658314	"[(0, 0)]"	[False]	['absent']	[False]	0.9	0.91661679	"[(0, 0)]"86	precue	chair	object	"['a', 'b']"	present	present	1	0.536241157	6.548333518	['chair']	['present']	['chair']	0.9	0.914952316	"[(0, 0)]"	['desert_26']	['present']	['desert_26']	0.1	0.100046421	"[(0, 0)]"	['flower_17']	['present']	['flower_17']	0.1	0.116788516	"[(0, 0)]"	['chair_31']	['present']	['chair_31']	0.1	0.116514329	"[(0, 0)]"	['woods_29']	['present']	['woods_29']	0.1	0.100012404	"[(0, 0)]"	['bathroom_23']	['present']	['bathroom_23']	0.1	0.116622245	"[(0, 0)]"	['shoe_11']	['present']	['shoe_11']	0.1	0.100021202	"[(0, 0)]"	[False]	['present']	[False]	0.9	0.916653153	"[(0, 0)]"87	nocue	FALSE	FALSE	"['a', 'b']"	absent	present	0	0.5968575	6.531564444	[False]	['present']	[False]	0.9	0.914845868	"[(0, 0)]"	['woods_3']	['present']	['woods_3']	0.1	0.116650103	"[(0, 0)]"	['car_61']	['present']	['car_61']	0.1	0.116610515	"[(0, 0)]"	['shoe_40']	['present']	['shoe_40']	0.1	0.100105364	"[(0, 0)]"	['flower_39']	['present']	['flower_39']	0.1	0.116776786	"[(0, 0)]"	['desert_54']	['present']	['desert_54']	0.1	0.116466823	"[(0, 0)]"	['coast_4']	['present']	['coast_4']	0.1	0.100036451	"[(0, 0)]"	[False]	['present']	[False]	0.9	0.900044192	"[(0, 0)]"88	precue	shoe	object	"['a', 'b']"	present	present	1	0.68775782	6.564842774	['shoe']	['present']	['shoe']	0.9	0.914827393	"[(0, 0)]"	['coast_33']	['present']	['coast_33']	0.1	0.100045835	"[(0, 0)]"	['shoe_43']	['present']	['shoe_43']	0.1	0.116645411	"[(0, 0)]"	['woods_37']	['present']	['woods_37']	0.1	0.116614034	"[(0, 0)]"	['car_59']	['present']	['car_59']	0.1	0.100046421	"[(0, 0)]"	['bathroom_18']	['present']	['bathroom_18']	0.1	0.116643065	"[(0, 0)]"	['flower_21']	['present']	['flower_21']	0.1	0.116664765	"[(0, 0)]"	[False]	['present']	[False]	0.9	0.916644942	"[(0, 0)]"89	precue	bathroom	scene	"['a', 'b']"	absent	absent	1	0.582464905	6.514936129	['bathroom']	['absent']	['bathroom']	0.9	0.914886922	"[(0, 0)]"	['coast_15']	['absent']	['coast_15']	0.1	0.100036451	"[(0, 0)]"	['chair_1']	['absent']	['chair_1']	0.1	0.100009765	"[(0, 0)]"	['woods_26']	['absent']	['woods_26']	0.1	0.116580603	"[(0, 0)]"	['desert_23']	['absent']	['desert_23']	0.1	0.100045541	"[(0, 0)]"	['shoe_44']	['absent']	['shoe_44']	0.1	0.116661833	"[(0, 0)]"	['flower_60']	['absent']	['flower_60']	0.1	0.116655675	"[(0, 0)]"	[False]	['absent']	[False]	0.9	0.916651393	"[(0, 0)]"90	postcue	bathroom	scene	"['a', 'b']"	absent	absent	1	0.495627238	6.565009338	[False]	['absent']	[False]	0.9	0.915001289	"[(0, 0)]"	['coast_31']	['absent']	['coast_31']	0.1	0.100089235	"[(0, 0)]"	['chair_41']	['absent']	['chair_41']	0.1	0.116657434	"[(0, 0)]"	['woods_38']	['absent']	['woods_38']	0.1	0.116654795	"[(0, 0)]"	['desert_70']	['absent']	['desert_70']	0.1	0.11664981	"[(0, 0)]"	['shoe_19']	['absent']	['shoe_19']	0.1	0.116651276	"[(0, 0)]"	['flower_46']	['absent']	['flower_46']	0.1	0.116658021	"[(0, 0)]"	['bathroom']	['absent']	['bathroom']	0.9	0.91659597	"[(0, 0)]"91	precue	chair	object	"['a', 'b']"	absent	absent	1	0.705952663	6.565026347	['chair']	['absent']	['chair']	0.9	0.914912142	"[(0, 0)]"	['desert_52']	['absent']	['desert_52']	0.1	0.100112109	"[(0, 0)]"	['coast_24']	['absent']	['coast_24']	0.1	0.116641599	"[(0, 0)]"	['woods_19']	['absent']	['woods_19']	0.1	0.116643358	"[(0, 0)]"	['shoe_31']	['absent']	['shoe_31']	0.1	0.116653622	"[(0, 0)]"	['car_11']	['absent']	['car_11']	0.1	0.116598491	"[(0, 0)]"	['flower_33']	['absent']	['flower_33']	0.1	0.116658021	"[(0, 0)]"	[False]	['absent']	[False]	0.9	0.900092578	"[(0, 0)]"92	postcue	woods	scene	"['a', 'b']"	present	present	1	0.702646296	6.548317389	[False]	['present']	[False]	0.9	0.914932962	"[(0, 0)]"	['bathroom_17']	['present']	['bathroom_17']	0.1	0.116653036	"[(0, 0)]"	['woods_3']	['present']	['woods_3']	0.1	0.10003997	"[(0, 0)]"	['shoe_21']	['present']	['shoe_21']	0.1	0.116651276	"[(0, 0)]"	['chair_45']	['present']	['chair_45']	0.1	0.11660465	"[(0, 0)]"	['car_41']	['present']	['car_41']	0.1	0.100045541	"[(0, 0)]"	['desert_14']	['present']	['desert_14']	0.1	0.116597025	"[(0, 0)]"	['woods']	['present']	['woods']	0.9	0.916661657	"[(0, 0)]"93	precue	woods	scene	"['a', 'b']"	present	present	1	0.597988849	6.547884849	['woods']	['present']	['woods']	0.9	0.914448224	"[(0, 0)]"	['desert_13']	['present']	['desert_13']	0.1	0.116655088	"[(0, 0)]"	['shoe_29']	['present']	['shoe_29']	0.1	0.100005366	"[(0, 0)]"	['woods_20']	['present']	['woods_20']	0.1	0.116647757	"[(0, 0)]"	['bathroom_6']	['present']	['bathroom_6']	0.1	0.100008299	"[(0, 0)]"	['car_56']	['present']	['car_56']	0.1	0.116642772	"[(0, 0)]"	['flower_32']	['present']	['flower_32']	0.1	0.116652742	"[(0, 0)]"	[False]	['present']	[False]	0.9	0.916650514	"[(0, 0)]"94	precue	woods	scene	"['a', 'b']"	absent	absent	1	0.407101051	6.565100832	['woods']	['absent']	['woods']	0.9	0.915056419	"[(0, 0)]"	['coast_36']	['absent']	['coast_36']	0.1	0.100034398	"[(0, 0)]"	['flower_6']	['absent']	['flower_6']	0.1	0.100041729	"[(0, 0)]"	['chair_24']	['absent']	['chair_24']	0.1	0.116652742	"[(0, 0)]"	['desert_22']	['absent']	['desert_22']	0.1	0.116658607	"[(0, 0)]"	['bathroom_35']	['absent']	['bathroom_35']	0.1	0.116644238	"[(0, 0)]"	['shoe_27']	['absent']	['shoe_27']	0.1	0.116673856	"[(0, 0)]"	[False]	['absent']	[False]	0.9	0.916637611	"[(0, 0)]"95	postcue	bathroom	scene	"['a', 'b']"	absent	absent	1	0.546237383	6.565085876	[False]	['absent']	[False]	0.9	0.915048795	"[(0, 0)]"	['shoe_16']	['absent']	['shoe_16']	0.1	0.100058444	"[(0, 0)]"	['desert_6']	['absent']	['desert_6']	0.1	0.116633388	"[(0, 0)]"	['coast_16']	['absent']	['coast_16']	0.1	0.116609635	"[(0, 0)]"	['woods_43']	['absent']	['woods_43']	0.1	0.100047008	"[(0, 0)]"	['car_17']	['absent']	['car_17']	0.1	0.116651276	"[(0, 0)]"	['flower_48']	['absent']	['flower_48']	0.1	0.116651863	"[(0, 0)]"	['bathroom']	['absent']	['bathroom']	0.9	0.916667522	"[(0, 0)]"96	precue	coast	scene	"['a', 'b']"	present	present	1	0.646061523	6.548345248	['coast']	['present']	['coast']	0.9	0.914964926	"[(0, 0)]"	['flower_60']	['present']	['flower_60']	0.1	0.1000734	"[(0, 0)]"	['woods_27']	['present']	['woods_27']	0.1	0.116592333	"[(0, 0)]"	['desert_9']	['present']	['desert_9']	0.1	0.11666154	"[(0, 0)]"	['car_37']	['present']	['car_37']	0.1	0.116656555	"[(0, 0)]"	['coast_32']	['present']	['coast_32']	0.1	0.116647757	"[(0, 0)]"	['chair_14']	['present']	['chair_14']	0.1	0.116652742	"[(0, 0)]"	[False]	['present']	[False]	0.9	0.916603007	"[(0, 0)]"97	precue	woods	scene	"['a', 'b']"	present	present	1	1.093549226	6.531425445	['woods']	['present']	['woods']	0.9	0.91465467	"[(0, 0)]"	['coast_56']	['present']	['coast_56']	0.1	0.100037037	"[(0, 0)]"	['chair_14']	['present']	['chair_14']	0.1	0.116654795	"[(0, 0)]"	['shoe_28']	['present']	['shoe_28']	0.1	0.116656261	"[(0, 0)]"	['car_22']	['present']	['car_22']	0.1	0.116606409	"[(0, 0)]"	['woods_38']	['present']	['woods_38']	0.1	0.100038797	"[(0, 0)]"	['desert_32']	['present']	['desert_32']	0.1	0.116559196	"[(0, 0)]"	[False]	['present']	[False]	0.9	0.916662244	"[(0, 0)]"98	postcue	shoe	object	"['a', 'b']"	present	present	1	0.72535686	6.598303504	[False]	['present']	[False]	0.9	0.914969325	"[(0, 0)]"	['coast_53']	['present']	['coast_53']	0.1	0.116661246	"[(0, 0)]"	['shoe_55']	['present']	['shoe_55']	0.1	0.116655968	"[(0, 0)]"	['woods_10']	['present']	['woods_10']	0.1	0.116651276	"[(0, 0)]"	['car_21']	['present']	['car_21']	0.1	0.116649223	"[(0, 0)]"	['bathroom_63']	['present']	['bathroom_63']	0.1	0.116658314	"[(0, 0)]"	['flower_51']	['present']	['flower_51']	0.1	0.11664981	"[(0, 0)]"	['shoe']	['present']	['shoe']	0.9	0.91665198	"[(0, 0)]"99	postcue	coast	scene	"['a', 'b']"	present	present	1	0.531055659	6.565008752	[False]	['present']	[False]	0.9	0.914945572	"[(0, 0)]"	['bathroom_38']	['present']	['bathroom_38']	0.1	0.100055805	"[(0, 0)]"	['chair_20']	['present']	['chair_20']	0.1	0.116667405	"[(0, 0)]"	['coast_7']	['present']	['coast_7']	0.1	0.116627523	"[(0, 0)]"	['flower_36']	['present']	['flower_36']	0.1	0.116660073	"[(0, 0)]"	['car_31']	['present']	['car_31']	0.1	0.11665978	"[(0, 0)]"	['desert_15']	['present']	['desert_15']	0.1	0.116565941	"[(0, 0)]"	['coast']	['present']	['coast']	0.9	0.916645235	"[(0, 0)]"100	precue	chair	object	"['a', 'b']"	absent	absent	1	0.677332866	6.54794995	['chair']	['absent']	['chair']	0.9	0.914618307	"[(0, 0)]"	['car_9']	['absent']	['car_9']	0.1	0.10005082	"[(0, 0)]"	['shoe_22']	['absent']	['shoe_22']	0.1	0.116657728	"[(0, 0)]"	['desert_34']	['absent']	['desert_34']	0.1	0.11655861	"[(0, 0)]"	['woods_12']	['absent']	['woods_12']	0.1	0.100083664	"[(0, 0)]"	['coast_22']	['absent']	['coast_22']	0.1	0.116653915	"[(0, 0)]"	['flower_25']	['absent']	['flower_25']	0.1	0.116596732	"[(0, 0)]"	[False]	['absent']	[False]	0.9	0.916590398	"[(0, 0)]"101	nocue	FALSE	FALSE	"['a', 'b']"	absent	present	0	0.596290652	6.531699631	[False]	['present']	[False]	0.9	0.914923285	"[(0, 0)]"	['woods_34']	['present']	['woods_34']	0.1	0.100031759	"[(0, 0)]"	['desert_51']	['present']	['desert_51']	0.1	0.116652156	"[(0, 0)]"	['chair_55']	['present']	['chair_55']	0.1	0.116636907	"[(0, 0)]"	['car_56']	['present']	['car_56']	0.1	0.116633095	"[(0, 0)]"	['bathroom_34']	['present']	['bathroom_34']	0.1	0.100039383	"[(0, 0)]"	['flower_49']	['present']	['flower_49']	0.1	0.116597905	"[(0, 0)]"	[False]	['present']	[False]	0.9	0.916655206	"[(0, 0)]"102	nocue	FALSE	FALSE	"['a', 'b']"	absent	present	0	0.491139962	6.548205662	[False]	['present']	[False]	0.9	0.914859357	"[(0, 0)]"	['car_16']	['present']	['car_16']	0.1	0.100098912	"[(0, 0)]"	['desert_8']	['present']	['desert_8']	0.1	0.116594973	"[(0, 0)]"	['woods_68']	['present']	['woods_68']	0.1	0.116657141	"[(0, 0)]"	['shoe_25']	['present']	['shoe_25']	0.1	0.116656261	"[(0, 0)]"	['flower_29']	['present']	['flower_29']	0.1	0.100036744	"[(0, 0)]"	['coast_2']	['present']	['coast_2']	0.1	0.116602597	"[(0, 0)]"	[False]	['present']	[False]	0.9	0.916456384	"[(0, 0)]"103	postcue	shoe	object	"['a', 'b']"	absent	absent	1	0.58486719	6.531672652	[False]	['absent']	[False]	0.9	0.915004515	"[(0, 0)]"	['flower_10']	['absent']	['flower_10']	0.1	0.100046421	"[(0, 0)]"	['desert_32']	['absent']	['desert_32']	0.1	0.11659204	"[(0, 0)]"	['woods_1']	['absent']	['woods_1']	0.1	0.116657434	"[(0, 0)]"	['bathroom_36']	['absent']	['bathroom_36']	0.1	0.100047887	"[(0, 0)]"	['chair_1']	['absent']	['chair_1']	0.1	0.116606702	"[(0, 0)]"	['car_17']	['absent']	['car_17']	0.1	0.100029119	"[(0, 0)]"	['shoe']	['absent']	['shoe']	0.9	0.900038914	"[(0, 0)]"104	nocue	FALSE	FALSE	"['a', 'b']"	absent	present	0	0.508240112	6.56499145	[False]	['present']	[False]	0.9	0.914944399	"[(0, 0)]"	['flower_1']	['present']	['flower_1']	0.1	0.100048474	"[(0, 0)]"	['woods_37']	['present']	['woods_37']	0.1	0.116638373	"[(0, 0)]"	['coast_7']	['present']	['coast_7']	0.1	0.116655675	"[(0, 0)]"	['bathroom_38']	['present']	['bathroom_38']	0.1	0.116639839	"[(0, 0)]"	['car_5']	['present']	['car_5']	0.1	0.100013577	"[(0, 0)]"	['shoe_61']	['present']	['shoe_61']	0.1	0.116653915	"[(0, 0)]"	[False]	['present']	[False]	0.9	0.916695967	"[(0, 0)]"105	precue	bathroom	scene	"['a', 'b']"	present	absent	0	0.760597897	6.548387182	['bathroom']	['absent']	['bathroom']	0.9	0.914981055	"[(0, 0)]"	['car_40']	['absent']	['car_40']	0.1	0.100093047	"[(0, 0)]"	['coast_58']	['absent']	['coast_58']	0.1	0.116599958	"[(0, 0)]"	['desert_65']	['absent']	['desert_65']	0.1	0.100041143	"[(0, 0)]"	['chair_13']	['absent']	['chair_13']	0.1	0.11665978	"[(0, 0)]"	['bathroom_10']	['absent']	['bathroom_10']	0.1	0.116655675	"[(0, 0)]"	['shoe_20']	['absent']	['shoe_20']	0.1	0.116653915	"[(0, 0)]"	[False]	['absent']	[False]	0.9	0.900045952	"[(0, 0)]"106	postcue	bathroom	scene	"['a', 'b']"	present	absent	0	0.512468157	6.531620161	[False]	['absent']	[False]	0.9	0.914898359	"[(0, 0)]"	['car_55']	['absent']	['car_55']	0.1	0.100045248	"[(0, 0)]"	['bathroom_8']	['absent']	['bathroom_8']	0.1	0.116658021	"[(0, 0)]"	['flower_24']	['absent']	['flower_24']	0.1	0.116644531	"[(0, 0)]"	['desert_17']	['absent']	['desert_17']	0.1	0.116621951	"[(0, 0)]"	['woods_11']	['absent']	['woods_11']	0.1	0.100025894	"[(0, 0)]"	['shoe_48']	['absent']	['shoe_48']	0.1	0.116614327	"[(0, 0)]"	['bathroom']	['absent']	['bathroom']	0.9	0.916651687	"[(0, 0)]"107	postcue	desert	scene	"['a', 'b']"	present	absent	0	0.526313258	6.581626217	[False]	['absent']	[False]	0.9	0.914963167	"[(0, 0)]"	['woods_9']	['absent']	['woods_9']	0.1	0.116604356	"[(0, 0)]"	['desert_46']	['absent']	['desert_46']	0.1	0.116636907	"[(0, 0)]"	['chair_51']	['absent']	['chair_51']	0.1	0.116598198	"[(0, 0)]"	['car_37']	['absent']	['car_37']	0.1	0.116697316	"[(0, 0)]"	['bathroom_50']	['absent']	['bathroom_50']	0.1	0.116654795	"[(0, 0)]"	['flower_48']	['absent']	['flower_48']	0.1	0.11656946	"[(0, 0)]"	['desert']	['absent']	['desert']	0.9	0.916655206	"[(0, 0)]"108	precue	chair	object	"['a', 'b']"	present	present	1	0.534432406	6.581700408	['chair']	['present']	['chair']	0.9	0.914974603	"[(0, 0)]"	['car_20']	['present']	['car_20']	0.1	0.116724295	"[(0, 0)]"	['bathroom_27']	['present']	['bathroom_27']	0.1	0.11659116	"[(0, 0)]"	['woods_30']	['present']	['woods_30']	0.1	0.116665352	"[(0, 0)]"	['chair_46']	['present']	['chair_46']	0.1	0.116639253	"[(0, 0)]"	['shoe_19']	['present']	['shoe_19']	0.1	0.116631628	"[(0, 0)]"	['desert_37']	['present']	['desert_37']	0.1	0.100004193	"[(0, 0)]"	[False]	['present']	[False]	0.9	0.916654033	"[(0, 0)]"109	precue	bathroom	scene	"['a', 'b']"	present	present	1	0.624074694	6.531751829	['bathroom']	['present']	['bathroom']	0.9	0.91499777	"[(0, 0)]"	['car_13']	['present']	['car_13']	0.1	0.116631335	"[(0, 0)]"	['bathroom_13']	['present']	['bathroom_13']	0.1	0.100041436	"[(0, 0)]"	['flower_40']	['present']	['flower_40']	0.1	0.116590867	"[(0, 0)]"	['desert_17']	['present']	['desert_17']	0.1	0.116611981	"[(0, 0)]"	['woods_45']	['present']	['woods_45']	0.1	0.100037037	"[(0, 0)]"	['shoe_27']	['present']	['shoe_27']	0.1	0.10000302	"[(0, 0)]"	[False]	['present']	[False]	0.9	0.916652273	"[(0, 0)]"110	postcue	flower	object	"['a', 'b']"	present	present	1	0.546064367	6.547973703	[False]	['present']	[False]	0.9	0.914590449	"[(0, 0)]"	['coast_43']	['present']	['coast_43']	0.1	0.100020909	"[(0, 0)]"	['flower_16']	['present']	['flower_16']	0.1	0.116657434	"[(0, 0)]"	['chair_73']	['present']	['chair_73']	0.1	0.116654795	"[(0, 0)]"	['car_31']	['present']	['car_31']	0.1	0.116635147	"[(0, 0)]"	['bathroom_45']	['present']	['bathroom_45']	0.1	0.100003607	"[(0, 0)]"	['woods_46']	['present']	['woods_46']	0.1	0.116654795	"[(0, 0)]"	['flower']	['present']	['flower']	0.9	0.916650514	"[(0, 0)]"111	precue	shoe	object	"['a', 'b']"	absent	absent	1	0.776392802	6.56470788	['shoe']	['absent']	['shoe']	0.9	0.914640594	"[(0, 0)]"	['coast_63']	['absent']	['coast_63']	0.1	0.100110642	"[(0, 0)]"	['chair_1']	['absent']	['chair_1']	0.1	0.11663632	"[(0, 0)]"	['woods_34']	['absent']	['woods_34']	0.1	0.116641892	"[(0, 0)]"	['car_11']	['absent']	['car_11']	0.1	0.100008299	"[(0, 0)]"	['desert_40']	['absent']	['desert_40']	0.1	0.116640133	"[(0, 0)]"	['flower_9']	['absent']	['flower_9']	0.1	0.116661833	"[(0, 0)]"	[False]	['absent']	[False]	0.9	0.91660594	"[(0, 0)]"112	nocue	FALSE	FALSE	"['a', 'b']"	absent	absent	1	0.624862357	6.564943651	[False]	['absent']	[False]	0.9	0.914923871	"[(0, 0)]"	['flower_32']	['absent']	['flower_32']	0.1	0.100044075	"[(0, 0)]"	['woods_49']	['absent']	['woods_49']	0.1	0.116653622	"[(0, 0)]"	['desert_30']	['absent']	['desert_30']	0.1	0.116650103	"[(0, 0)]"	['car_30']	['absent']	['car_30']	0.1	0.116649223	"[(0, 0)]"	['coast_9']	['absent']	['coast_9']	0.1	0.116653329	"[(0, 0)]"	['chair_44']	['absent']	['chair_44']	0.1	0.116663592	"[(0, 0)]"	[False]	['absent']	[False]	0.9	0.900045659	"[(0, 0)]"113	postcue	coast	scene	"['a', 'b']"	present	present	1	0.624567643	6.531572948	[False]	['present']	[False]	0.9	0.914854958	"[(0, 0)]"	['flower_10']	['present']	['flower_10']	0.1	0.100048767	"[(0, 0)]"	['woods_22']	['present']	['woods_22']	0.1	0.100033811	"[(0, 0)]"	['desert_29']	['present']	['desert_29']	0.1	0.100004193	"[(0, 0)]"	['car_43']	['present']	['car_43']	0.1	0.11664893	"[(0, 0)]"	['coast_50']	['present']	['coast_50']	0.1	0.116656261	"[(0, 0)]"	['chair_44']	['present']	['chair_44']	0.1	0.11665069	"[(0, 0)]"	['coast']	['present']	['coast']	0.9	0.916661657	"[(0, 0)]"114	nocue	FALSE	FALSE	"['a', 'b']"	absent	absent	1	0.581917118	6.54805024	[False]	['absent']	[False]	0.9	0.91461039	"[(0, 0)]"	['woods_31']	['absent']	['woods_31']	0.1	0.100077505	"[(0, 0)]"	['chair_45']	['absent']	['chair_45']	0.1	0.116675029	"[(0, 0)]"	['car_78']	['absent']	['car_78']	0.1	0.116644825	"[(0, 0)]"	['coast_31']	['absent']	['coast_31']	0.1	0.116657728	"[(0, 0)]"	['shoe_21']	['absent']	['shoe_21']	0.1	0.1166589	"[(0, 0)]"	['bathroom_43']	['absent']	['bathroom_43']	0.1	0.116637787	"[(0, 0)]"	[False]	['absent']	[False]	0.9	0.900040673	"[(0, 0)]"115	precue	chair	object	"['a', 'b']"	absent	absent	1	0.760162131	6.531517524	['chair']	['absent']	['chair']	0.9	0.914828859	"[(0, 0)]"	['shoe_4']	['absent']	['shoe_4']	0.1	0.100013871	"[(0, 0)]"	['bathroom_50']	['absent']	['bathroom_50']	0.1	0.116644825	"[(0, 0)]"	['woods_6']	['absent']	['woods_6']	0.1	0.100117094	"[(0, 0)]"	['coast_48']	['absent']	['coast_48']	0.1	0.116577671	"[(0, 0)]"	['flower_53']	['absent']	['flower_53']	0.1	0.100036157	"[(0, 0)]"	['car_29']	['absent']	['car_29']	0.1	0.116593213	"[(0, 0)]"	[False]	['absent']	[False]	0.9	0.9166511	"[(0, 0)]"116	precue	flower	object	"['a', 'b']"	absent	absent	1	0.435173355	6.548029713	['flower']	['absent']	['flower']	0.9	0.914622999	"[(0, 0)]"	['shoe_5']	['absent']	['shoe_5']	0.1	0.100034984	"[(0, 0)]"	['chair_61']	['absent']	['chair_61']	0.1	0.116657141	"[(0, 0)]"	['coast_9']	['absent']	['coast_9']	0.1	0.116605236	"[(0, 0)]"	['woods_16']	['absent']	['woods_16']	0.1	0.116641892	"[(0, 0)]"	['car_49']	['absent']	['car_49']	0.1	0.100048767	"[(0, 0)]"	['bathroom_34']	['absent']	['bathroom_34']	0.1	0.116610221	"[(0, 0)]"	[False]	['absent']	[False]	0.9	0.90004214	"[(0, 0)]"117	postcue	coast	scene	"['a', 'b']"	present	present	1	0.805751583	6.548086896	[False]	['present']	[False]	0.9	0.914657309	"[(0, 0)]"	['car_6']	['present']	['car_6']	0.1	0.100012404	"[(0, 0)]"	['coast_69']	['present']	['coast_69']	0.1	0.116606996	"[(0, 0)]"	['bathroom_19']	['present']	['bathroom_19']	0.1	0.116648344	"[(0, 0)]"	['shoe_57']	['present']	['shoe_57']	0.1	0.116662126	"[(0, 0)]"	['woods_61']	['present']	['woods_61']	0.1	0.100032932	"[(0, 0)]"	['flower_33']	['present']	['flower_33']	0.1	0.116667111	"[(0, 0)]"	['coast']	['present']	['coast']	0.9	0.916596556	"[(0, 0)]"118	precue	coast	scene	"['a', 'b']"	absent	absent	1	0.535096905	6.598023452	['coast']	['absent']	['coast']	0.9	0.914630917	"[(0, 0)]"	['car_1']	['absent']	['car_1']	0.1	0.116862708	"[(0, 0)]"	['desert_8']	['absent']	['desert_8']	0.1	0.116415798	"[(0, 0)]"	['bathroom_37']	['absent']	['bathroom_37']	0.1	0.116662713	"[(0, 0)]"	['shoe_10']	['absent']	['shoe_10']	0.1	0.116660073	"[(0, 0)]"	['flower_5']	['absent']	['flower_5']	0.1	0.11664981	"[(0, 0)]"	['woods_6']	['absent']	['woods_6']	0.1	0.116658021	"[(0, 0)]"	[False]	['absent']	[False]	0.9	0.91665198	"[(0, 0)]"119	precue	woods	scene	"['a', 'b']"	present	present	1	1.081085028	6.564999661	['woods']	['present']	['woods']	0.9	0.914895133	"[(0, 0)]"	['bathroom_9']	['present']	['bathroom_9']	0.1	0.10007164	"[(0, 0)]"	['woods_39']	['present']	['woods_39']	0.1	0.116659194	"[(0, 0)]"	['shoe_8']	['present']	['shoe_8']	0.1	0.116651276	"[(0, 0)]"	['chair_43']	['present']	['chair_43']	0.1	0.116656261	"[(0, 0)]"	['car_47']	['present']	['car_47']	0.1	0.100007126	"[(0, 0)]"	['desert_10']	['present']	['desert_10']	0.1	0.116615207	"[(0, 0)]"	[False]	['present']	[False]	0.9	0.916658138	"[(0, 0)]"120	nocue	FALSE	FALSE	"['a', 'b']"	absent	present	0	0.488401029	6.564975908	[False]	['present']	[False]	0.9	0.914879298	"[(0, 0)]"	['coast_27']	['present']	['coast_27']	0.1	0.100005073	"[(0, 0)]"	['shoe_23']	['present']	['shoe_23']	0.1	0.116651863	"[(0, 0)]"	['woods_11']	['present']	['woods_11']	0.1	0.116655382	"[(0, 0)]"	['car_50']	['present']	['car_50']	0.1	0.116657728	"[(0, 0)]"	['bathroom_29']	['present']	['bathroom_29']	0.1	0.116663592	"[(0, 0)]"	['flower_20']	['present']	['flower_20']	0.1	0.116603477	"[(0, 0)]"	[False]	['present']	[False]	0.9	0.916535854	"[(0, 0)]"121	postcue	coast	scene	"['a', 'b']"	absent	absent	1	0.619060745	6.548421199	[False]	['absent']	[False]	0.9	0.914992785	"[(0, 0)]"	['bathroom_8']	['absent']	['bathroom_8']	0.1	0.100090995	"[(0, 0)]"	['chair_39']	['absent']	['chair_39']	0.1	0.116651276	"[(0, 0)]"	['desert_44']	['absent']	['desert_44']	0.1	0.116611688	"[(0, 0)]"	['car_44']	['absent']	['car_44']	0.1	0.116658314	"[(0, 0)]"	['woods_55']	['absent']	['woods_55']	0.1	0.100039676	"[(0, 0)]"	['flower_2']	['absent']	['flower_2']	0.1	0.116647464	"[(0, 0)]"	['coast']	['absent']	['coast']	0.9	0.900089939	"[(0, 0)]"122	precue	desert	scene	"['a', 'b']"	absent	absent	1	0.715699922	6.817260967	['desert']	['absent']	['desert']	0.9	0.900487583	"[(0, 0)]"	['shoe_21']	['absent']	['shoe_21']	0.1	0.116652742	"[(0, 0)]"	['coast_11']	['absent']	['coast_11']	0.1	0.116651276	"[(0, 0)]"	['flower_10']	['absent']	['flower_10']	0.1	0.100042316	"[(0, 0)]"	['woods_22']	['absent']	['woods_22']	0.1	0.116602304	"[(0, 0)]"	['bathroom_49']	['absent']	['bathroom_49']	0.1	0.428244793	"[(0, 0)]"	['car_22']	['absent']	['car_22']	0.1	0.105054211	"[(0, 0)]"	[False]	['absent']	[False]	0.9	0.900041846	"[(0, 0)]"123	precue	shoe	object	"['a', 'b']"	present	present	1	0.438197031	6.531771184	['shoe']	['present']	['shoe']	0.9	0.915043516	"[(0, 0)]"	['car_13']	['present']	['car_13']	0.1	0.100028533	"[(0, 0)]"	['desert_19']	['present']	['desert_19']	0.1	0.116647757	"[(0, 0)]"	['woods_12']	['present']	['woods_12']	0.1	0.100007419	"[(0, 0)]"	['shoe_30']	['present']	['shoe_30']	0.1	0.116610221	"[(0, 0)]"	['flower_43']	['present']	['flower_43']	0.1	0.116658607	"[(0, 0)]"	['coast_47']	['present']	['coast_47']	0.1	0.100032932	"[(0, 0)]"	[False]	['present']	[False]	0.9	0.916698899	"[(0, 0)]"124	nocue	FALSE	FALSE	"['a', 'b']"	absent	absent	1	0.423125275	6.581563168	[False]	['absent']	[False]	0.9	0.914784286	"[(0, 0)]"	['flower_31']	['absent']	['flower_31']	0.1	0.100094514	"[(0, 0)]"	['woods_9']	['absent']	['woods_9']	0.1	0.116644531	"[(0, 0)]"	['desert_47']	['absent']	['desert_47']	0.1	0.116659487	"[(0, 0)]"	['bathroom_37']	['absent']	['bathroom_37']	0.1	0.116643358	"[(0, 0)]"	['car_36']	['absent']	['car_36']	0.1	0.116670337	"[(0, 0)]"	['shoe_64']	['absent']	['shoe_64']	0.1	0.11664893	"[(0, 0)]"	[False]	['absent']	[False]	0.9	0.916666642	"[(0, 0)]"125	postcue	desert	scene	"['a', 'b']"	present	absent	0	0.547715645	6.548406536	[False]	['absent']	[False]	0.9	0.915075187	"[(0, 0)]"	['car_47']	['absent']	['car_47']	0.1	0.100026187	"[(0, 0)]"	['bathroom_52']	['absent']	['bathroom_52']	0.1	0.116651863	"[(0, 0)]"	['desert_58']	['absent']	['desert_58']	0.1	0.11664893	"[(0, 0)]"	['shoe_28']	['absent']	['shoe_28']	0.1	0.116661246	"[(0, 0)]"	['coast_44']	['absent']	['coast_44']	0.1	0.116643945	"[(0, 0)]"	['chair_3']	['absent']	['chair_3']	0.1	0.100005953	"[(0, 0)]"	['desert']	['absent']	['desert']	0.9	0.916554915	"[(0, 0)]"126	postcue	car	object	"['a', 'b']"	present	present	1	0.603303376	6.548478382	[False]	['present']	[False]	0.9	0.915135303	"[(0, 0)]"	['desert_51']	['present']	['desert_51']	0.1	0.116600837	"[(0, 0)]"	['flower_50']	['present']	['flower_50']	0.1	0.100031759	"[(0, 0)]"	['shoe_40']	['present']	['shoe_40']	0.1	0.116608462	"[(0, 0)]"	['car_2']	['present']	['car_2']	0.1	0.100037624	"[(0, 0)]"	['woods_42']	['present']	['woods_42']	0.1	0.116651569	"[(0, 0)]"	['coast_59']	['present']	['coast_59']	0.1	0.116655382	"[(0, 0)]"	['car']	['present']	['car']	0.9	0.900035395	"[(0, 0)]"127	precue	chair	object	"['a', 'b']"	present	present	1	0.498360306	6.515136124	['chair']	['present']	['chair']	0.9	0.914982228	"[(0, 0)]"	['woods_67']	['present']	['woods_67']	0.1	0.100029999	"[(0, 0)]"	['coast_37']	['present']	['coast_37']	0.1	0.11660465	"[(0, 0)]"	['desert_4']	['present']	['desert_4']	0.1	0.100041729	"[(0, 0)]"	['car_59']	['present']	['car_59']	0.1	0.116663006	"[(0, 0)]"	['chair_32']	['present']	['chair_32']	0.1	0.116652156	"[(0, 0)]"	['flower_37']	['present']	['flower_37']	0.1	0.116597318	"[(0, 0)]"	[False]	['present']	[False]	0.9	0.900047711	"[(0, 0)]"128	precue	desert	scene	"['a', 'b']"	absent	absent	1	0.620315552	6.581471968	['desert']	['absent']	['desert']	0.9	0.914809798	"[(0, 0)]"	['bathroom_42']	['absent']	['bathroom_42']	0.1	0.116651569	"[(0, 0)]"	['shoe_63']	['absent']	['shoe_63']	0.1	0.116642772	"[(0, 0)]"	['woods_4']	['absent']	['woods_4']	0.1	0.116665938	"[(0, 0)]"	['coast_28']	['absent']	['coast_28']	0.1	0.116897018	"[(0, 0)]"	['chair_28']	['absent']	['chair_28']	0.1	0.116416385	"[(0, 0)]"	['car_38']	['absent']	['car_38']	0.1	0.116604063	"[(0, 0)]"	[False]	['absent']	[False]	0.9	0.916610339	"[(0, 0)]"129	precue	bathroom	scene	"['a', 'b']"	absent	absent	1	0.774934481	6.56512957	['bathroom']	['absent']	['bathroom']	0.9	0.915015658	"[(0, 0)]"	['flower_55']	['absent']	['flower_55']	0.1	0.116657141	"[(0, 0)]"	['woods_30']	['absent']	['woods_30']	0.1	0.116652449	"[(0, 0)]"	['desert_2']	['absent']	['desert_2']	0.1	0.116710219	"[(0, 0)]"	['shoe_32']	['absent']	['shoe_32']	0.1	0.116650396	"[(0, 0)]"	['coast_27']	['absent']	['coast_27']	0.1	0.116651276	"[(0, 0)]"	['chair_55']	['absent']	['chair_55']	0.1	0.11660465	"[(0, 0)]"	[False]	['absent']	[False]	0.9	0.916604474	"[(0, 0)]"130	postcue	car	object	"['a', 'b']"	present	present	1	0.499819799	6.564836322	[False]	['present']	[False]	0.9	0.914785752	"[(0, 0)]"	['desert_72']	['present']	['desert_72']	0.1	0.100075746	"[(0, 0)]"	['coast_10']	['present']	['coast_10']	0.1	0.116663299	"[(0, 0)]"	['car_4']	['present']	['car_4']	0.1	0.116643358	"[(0, 0)]"	['bathroom_23']	['present']	['bathroom_23']	0.1	0.116653036	"[(0, 0)]"	['chair_5']	['present']	['chair_5']	0.1	0.116662713	"[(0, 0)]"	['shoe_4']	['present']	['shoe_4']	0.1	0.11659292	"[(0, 0)]"	['car']	['present']	['car']	0.9	0.916585413	"[(0, 0)]"131	precue	flower	object	"['a', 'b']"	absent	absent	1	0.498142423	6.548534099	['flower']	['absent']	['flower']	0.9	0.915159056	"[(0, 0)]"	['coast_59']	['absent']	['coast_59']	0.1	0.100035571	"[(0, 0)]"	['shoe_26']	['absent']	['shoe_26']	0.1	0.116642185	"[(0, 0)]"	['chair_6']	['absent']	['chair_6']	0.1	0.116622538	"[(0, 0)]"	['bathroom_38']	['absent']	['bathroom_38']	0.1	0.100015044	"[(0, 0)]"	['woods_19']	['absent']	['woods_19']	0.1	0.116665352	"[(0, 0)]"	['car_53']	['absent']	['car_53']	0.1	0.116647464	"[(0, 0)]"	[False]	['absent']	[False]	0.9	0.916646408	"[(0, 0)]"132	postcue	flower	object	"['a', 'b']"	absent	absent	1	0.53174831	6.581604223	[False]	['absent']	[False]	0.9	0.914828566	"[(0, 0)]"	['coast_10']	['absent']	['coast_10']	0.1	0.100017976	"[(0, 0)]"	['shoe_47']	['absent']	['shoe_47']	0.1	0.116644825	"[(0, 0)]"	['chair_49']	['absent']	['chair_49']	0.1	0.116669457	"[(0, 0)]"	['bathroom_56']	['absent']	['bathroom_56']	0.1	0.116651863	"[(0, 0)]"	['woods_39']	['absent']	['woods_39']	0.1	0.116655088	"[(0, 0)]"	['car_58']	['absent']	['car_58']	0.1	0.116650396	"[(0, 0)]"	['flower']	['absent']	['flower']	0.9	0.916656085	"[(0, 0)]"133	precue	flower	object	"['a', 'b']"	absent	absent	1	0.546451454	6.53161283	['flower']	['absent']	['flower']	0.9	0.914898066	"[(0, 0)]"	['bathroom_53']	['absent']	['bathroom_53']	0.1	0.100025014	"[(0, 0)]"	['desert_45']	['absent']	['desert_45']	0.1	0.116596439	"[(0, 0)]"	['chair_46']	['absent']	['chair_46']	0.1	0.116652449	"[(0, 0)]"	['coast_35']	['absent']	['coast_35']	0.1	0.100007419	"[(0, 0)]"	['shoe_35']	['absent']	['shoe_35']	0.1	0.116643945	"[(0, 0)]"	['car_39']	['absent']	['car_39']	0.1	0.100047008	"[(0, 0)]"	[False]	['absent']	[False]	0.9	0.900035981	"[(0, 0)]"134	postcue	shoe	object	"['a', 'b']"	absent	absent	1	0.517512603	6.564853037	[False]	['absent']	[False]	0.9	0.914744404	"[(0, 0)]"	['coast_60']	['absent']	['coast_60']	0.1	0.116633681	"[(0, 0)]"	['chair_48']	['absent']	['chair_48']	0.1	0.116652156	"[(0, 0)]"	['woods_49']	['absent']	['woods_49']	0.1	0.116669751	"[(0, 0)]"	['car_39']	['absent']	['car_39']	0.1	0.116658314	"[(0, 0)]"	['desert_2']	['absent']	['desert_2']	0.1	0.116648344	"[(0, 0)]"	['flower_4']	['absent']	['flower_4']	0.1	0.116646584	"[(0, 0)]"	['shoe']	['absent']	['shoe']	0.9	0.916645235	"[(0, 0)]"135	precue	car	object	"['a', 'b']"	present	present	1	0.685390138	6.56494805	['car']	['present']	['car']	0.9	0.914882524	"[(0, 0)]"	['flower_24']	['present']	['flower_24']	0.1	0.116652742	"[(0, 0)]"	['woods_52']	['present']	['woods_52']	0.1	0.116662419	"[(0, 0)]"	['desert_25']	['present']	['desert_25']	0.1	0.116946576	"[(0, 0)]"	['bathroom_30']	['present']	['bathroom_30']	0.1	0.116369465	"[(0, 0)]"	['car_24']	['present']	['car_24']	0.1	0.116598785	"[(0, 0)]"	['shoe_2']	['present']	['shoe_2']	0.1	0.100029119	"[(0, 0)]"	[False]	['present']	[False]	0.9	0.916664003	"[(0, 0)]"136	precue	desert	scene	"['a', 'b']"	absent	present	0	0.582161687	6.531770597	['desert']	['present']	['desert']	0.9	0.915025922	"[(0, 0)]"	['coast_51']	['present']	['coast_51']	0.1	0.100028533	"[(0, 0)]"	['bathroom_17']	['present']	['bathroom_17']	0.1	0.116663886	"[(0, 0)]"	['chair_55']	['present']	['chair_55']	0.1	0.116660073	"[(0, 0)]"	['shoe_28']	['present']	['shoe_28']	0.1	0.1165938	"[(0, 0)]"	['flower_49']	['present']	['flower_49']	0.1	0.100049647	"[(0, 0)]"	['woods_20']	['present']	['woods_20']	0.1	0.116594679	"[(0, 0)]"	[False]	['present']	[False]	0.9	0.90004214	"[(0, 0)]"137	nocue	FALSE	FALSE	"['a', 'b']"	absent	present	0	0.62282194	6.581561116	[False]	['present']	[False]	0.9	0.914852906	"[(0, 0)]"	['flower_61']	['present']	['flower_61']	0.1	0.116661833	"[(0, 0)]"	['chair_44']	['present']	['chair_44']	0.1	0.116653622	"[(0, 0)]"	['shoe_25']	['present']	['shoe_25']	0.1	0.11665978	"[(0, 0)]"	['coast_72']	['present']	['coast_72']	0.1	0.116637787	"[(0, 0)]"	['woods_62']	['present']	['woods_62']	0.1	0.116657141	"[(0, 0)]"	['bathroom_51']	['present']	['bathroom_51']	0.1	0.1166589	"[(0, 0)]"	[False]	['present']	[False]	0.9	0.90004038	"[(0, 0)]"138	precue	car	object	"['a', 'b']"	absent	absent	1	0.632495593	6.565175317	['car']	['absent']	['car']	0.9	0.915014778	"[(0, 0)]"	['bathroom_1']	['absent']	['bathroom_1']	0.1	0.100059617	"[(0, 0)]"	['chair_50']	['absent']	['chair_50']	0.1	0.11665978	"[(0, 0)]"	['desert_69']	['absent']	['desert_69']	0.1	0.116652156	"[(0, 0)]"	['woods_9']	['absent']	['woods_9']	0.1	0.116655088	"[(0, 0)]"	['shoe_22']	['absent']	['shoe_22']	0.1	0.116646291	"[(0, 0)]"	['flower_58']	['absent']	['flower_58']	0.1	0.116711392	"[(0, 0)]"	[False]	['absent']	[False]	0.9	0.916637611	"[(0, 0)]"139	postcue	woods	scene	"['a', 'b']"	present	absent	0	0.556077602	6.564618733	[False]	['absent']	[False]	0.9	0.914637955	"[(0, 0)]"	['coast_15']	['absent']	['coast_15']	0.1	0.100066362	"[(0, 0)]"	['chair_33']	['absent']	['chair_33']	0.1	0.1166155	"[(0, 0)]"	['shoe_50']	['absent']	['shoe_50']	0.1	0.116645998	"[(0, 0)]"	['car_4']	['absent']	['car_4']	0.1	0.116653329	"[(0, 0)]"	['woods_4']	['absent']	['woods_4']	0.1	0.116663592	"[(0, 0)]"	['desert_46']	['absent']	['desert_46']	0.1	0.116647171	"[(0, 0)]"	['woods']	['absent']	['woods']	0.9	0.916625588	"[(0, 0)]"140	postcue	woods	scene	"['a', 'b']"	present	absent	0	0.483047793	6.531850067	[False]	['absent']	[False]	0.9	0.91500774	"[(0, 0)]"	['chair_28']	['absent']	['chair_28']	0.1	0.10003909	"[(0, 0)]"	['desert_32']	['absent']	['desert_32']	0.1	0.11664981	"[(0, 0)]"	['shoe_3']	['absent']	['shoe_3']	0.1	0.10000302	"[(0, 0)]"	['woods_44']	['absent']	['woods_44']	0.1	0.11663808	"[(0, 0)]"	['coast_73']	['absent']	['coast_73']	0.1	0.10000302	"[(0, 0)]"	['flower_8']	['absent']	['flower_8']	0.1	0.116645704	"[(0, 0)]"	['woods']	['absent']	['woods']	0.9	0.916633505	"[(0, 0)]"141	precue	bathroom	scene	"['a', 'b']"	present	present	1	0.615502185	6.548389528	['bathroom']	['present']	['bathroom']	0.9	0.914958475	"[(0, 0)]"	['shoe_4']	['present']	['shoe_4']	0.1	0.100038503	"[(0, 0)]"	['woods_48']	['present']	['woods_48']	0.1	0.116634268	"[(0, 0)]"	['bathroom_46']	['present']	['bathroom_46']	0.1	0.11660377	"[(0, 0)]"	['car_9']	['present']	['car_9']	0.1	0.100045541	"[(0, 0)]"	['flower_27']	['present']	['flower_27']	0.1	0.100045541	"[(0, 0)]"	['desert_40']	['present']	['desert_40']	0.1	0.116654795	"[(0, 0)]"	[False]	['present']	[False]	0.9	0.916652273	"[(0, 0)]"142	nocue	FALSE	FALSE	"['a', 'b']"	absent	absent	1	0.561906192	6.531608138	[False]	['absent']	[False]	0.9	0.914892201	"[(0, 0)]"	['car_8']	['absent']	['car_8']	0.1	0.100053459	"[(0, 0)]"	['bathroom_10']	['absent']	['bathroom_10']	0.1	0.1166372	"[(0, 0)]"	['desert_72']	['absent']	['desert_72']	0.1	0.116609342	"[(0, 0)]"	['shoe_48']	['absent']	['shoe_48']	0.1	0.116658314	"[(0, 0)]"	['coast_46']	['absent']	['coast_46']	0.1	0.100029119	"[(0, 0)]"	['chair_17']	['absent']	['chair_17']	0.1	0.116665059	"[(0, 0)]"	[False]	['absent']	[False]	0.9	0.90007645	"[(0, 0)]"143	precue	coast	scene	"['a', 'b']"	absent	absent	1	0.453262629	6.565168572	['coast']	['absent']	['coast']	0.9	0.915174012	"[(0, 0)]"	['bathroom_46']	['absent']	['bathroom_46']	0.1	0.100092754	"[(0, 0)]"	['chair_14']	['absent']	['chair_14']	0.1	0.116605529	"[(0, 0)]"	['desert_39']	['absent']	['desert_39']	0.1	0.116651863	"[(0, 0)]"	['car_27']	['absent']	['car_27']	0.1	0.11667239	"[(0, 0)]"	['woods_21']	['absent']	['woods_21']	0.1	0.116637493	"[(0, 0)]"	['flower_16']	['absent']	['flower_16']	0.1	0.116654502	"[(0, 0)]"	[False]	['absent']	[False]	0.9	0.900036861	"[(0, 0)]"144	nocue	FALSE	FALSE	"['a', 'b']"	absent	absent	1	0.544608099	6.548493044	[False]	['absent']	[False]	0.9	0.915103046	"[(0, 0)]"	['bathroom_16']	['absent']	['bathroom_16']	0.1	0.116607875	"[(0, 0)]"	['chair_29']	['absent']	['chair_29']	0.1	0.100023548	"[(0, 0)]"	['flower_69']	['absent']	['flower_69']	0.1	0.100051406	"[(0, 0)]"	['shoe_41']	['absent']	['shoe_41']	0.1	0.11665978	"[(0, 0)]"	['desert_48']	['absent']	['desert_48']	0.1	0.116653622	"[(0, 0)]"	['woods_17']	['absent']	['woods_17']	0.1	0.116590867	"[(0, 0)]"	[False]	['absent']	[False]	0.9	0.916597436	"[(0, 0)]"145	postcue	car	object	"['a', 'b']"	present	absent	0	0.680092033	6.531680863	[False]	['absent']	[False]	0.9	0.91495173	"[(0, 0)]"	['flower_13']	['absent']	['flower_13']	0.1	0.11665978	"[(0, 0)]"	['woods_42']	['absent']	['woods_42']	0.1	0.100046714	"[(0, 0)]"	['desert_17']	['absent']	['desert_17']	0.1	0.116592333	"[(0, 0)]"	['bathroom_43']	['absent']	['bathroom_43']	0.1	0.116650103	"[(0, 0)]"	['car_54']	['absent']	['car_54']	0.1	0.116615793	"[(0, 0)]"	['shoe_12']	['absent']	['shoe_12']	0.1	0.100023841	"[(0, 0)]"	['car']	['absent']	['car']	0.9	0.900052403	"[(0, 0)]"146	postcue	bathroom	scene	"['a', 'b']"	absent	absent	1	0.466559651	6.565172384	[False]	['absent']	[False]	0.9	0.915117415	"[(0, 0)]"	['flower_12']	['absent']	['flower_12']	0.1	0.100048181	"[(0, 0)]"	['woods_48']	['absent']	['woods_48']	0.1	0.116702301	"[(0, 0)]"	['desert_24']	['absent']	['desert_24']	0.1	0.116600544	"[(0, 0)]"	['shoe_5']	['absent']	['shoe_5']	0.1	0.116652742	"[(0, 0)]"	['coast_57']	['absent']	['coast_57']	0.1	0.116654209	"[(0, 0)]"	['chair_46']	['absent']	['chair_46']	0.1	0.116653915	"[(0, 0)]"	['bathroom']	['absent']	['bathroom']	0.9	0.916657845	"[(0, 0)]"147	postcue	shoe	object	"['a', 'b']"	absent	absent	1	0.353702999	6.564923124	[False]	['absent']	[False]	0.9	0.91486053	"[(0, 0)]"	['flower_6']	['absent']	['flower_6']	0.1	0.100049354	"[(0, 0)]"	['bathroom_32']	['absent']	['bathroom_32']	0.1	0.116640426	"[(0, 0)]"	['desert_54']	['absent']	['desert_54']	0.1	0.116649517	"[(0, 0)]"	['car_54']	['absent']	['car_54']	0.1	0.116626057	"[(0, 0)]"	['chair_29']	['absent']	['chair_29']	0.1	0.100022375	"[(0, 0)]"	['woods_19']	['absent']	['woods_19']	0.1	0.116658607	"[(0, 0)]"	['shoe']	['absent']	['shoe']	0.9	0.916644355	"[(0, 0)]"148	postcue	flower	object	"['a', 'b']"	absent	present	0	0.481304436	6.514736134	[False]	['present']	[False]	0.9	0.914606577	"[(0, 0)]"	['coast_50']	['present']	['coast_50']	0.1	0.100040849	"[(0, 0)]"	['bathroom_53']	['present']	['bathroom_53']	0.1	0.116605823	"[(0, 0)]"	['car_8']	['present']	['car_8']	0.1	0.100032932	"[(0, 0)]"	['chair_24']	['present']	['chair_24']	0.1	0.100011818	"[(0, 0)]"	['desert_38']	['present']	['desert_38']	0.1	0.111170771	"[(0, 0)]"	['shoe_61']	['present']	['shoe_61']	0.1	0.1054108	"[(0, 0)]"	['flower']	['present']	['flower']	0.9	0.916601248	"[(0, 0)]"149	nocue	FALSE	FALSE	"['a', 'b']"	absent	absent	1	0.417974673	6.515092723	[False]	['absent']	[False]	0.9	0.914922992	"[(0, 0)]"	['woods_35']	['absent']	['woods_35']	0.1	0.11664805	"[(0, 0)]"	['coast_36']	['absent']	['coast_36']	0.1	0.116647757	"[(0, 0)]"	['desert_31']	['absent']	['desert_31']	0.1	0.116663006	"[(0, 0)]"	['car_25']	['absent']	['car_25']	0.1	0.116642772	"[(0, 0)]"	['chair_15']	['absent']	['chair_15']	0.1	0.100053752	"[(0, 0)]"	['flower_10']	['absent']	['flower_10']	0.1	0.116550399	"[(0, 0)]"	[False]	['absent']	[False]	0.9	0.916541425	"[(0, 0)]"150	nocue	FALSE	FALSE	"['a', 'b']"	absent	absent	1	0.37364208	6.548403604	[False]	['absent']	[False]	0.9	0.915010966	"[(0, 0)]"	['desert_18']	['absent']	['desert_18']	0.1	0.100090408	"[(0, 0)]"	['bathroom_17']	['absent']	['bathroom_17']	0.1	0.116603183	"[(0, 0)]"	['flower_50']	['absent']	['flower_50']	0.1	0.100035864	"[(0, 0)]"	['car_39']	['absent']	['car_39']	0.1	0.116657434	"[(0, 0)]"	['shoe_28']	['absent']	['shoe_28']	0.1	0.116659487	"[(0, 0)]"	['coast_25']	['absent']	['coast_25']	0.1	0.116597612	"[(0, 0)]"	[False]	['absent']	[False]	0.9	0.900019853	"[(0, 0)]"151	postcue	chair	object	"['a', 'b']"	absent	absent	1	0.652166059	6.515053428	[False]	['absent']	[False]	0.9	0.914949384	"[(0, 0)]"	['car_63']	['absent']	['car_63']	0.1	0.100042902	"[(0, 0)]"	['shoe_14']	['absent']	['shoe_14']	0.1	0.116646584	"[(0, 0)]"	['desert_60']	['absent']	['desert_60']	0.1	0.116605823	"[(0, 0)]"	['woods_1']	['absent']	['woods_1']	0.1	0.100046128	"[(0, 0)]"	['coast_59']	['absent']	['coast_59']	0.1	0.116659194	"[(0, 0)]"	['flower_10']	['absent']	['flower_10']	0.1	0.116591454	"[(0, 0)]"	['chair']	['absent']	['chair']	0.9	0.900084074	"[(0, 0)]"152	postcue	chair	object	"['a', 'b']"	present	present	1	0.45172044	6.548455215	[False]	['present']	[False]	0.9	0.915061698	"[(0, 0)]"	['woods_51']	['present']	['woods_51']	0.1	0.100047887	"[(0, 0)]"	['chair_17']	['present']	['chair_17']	0.1	0.116602597	"[(0, 0)]"	['car_11']	['present']	['car_11']	0.1	0.100034984	"[(0, 0)]"	['coast_33']	['present']	['coast_33']	0.1	0.11664981	"[(0, 0)]"	['shoe_6']	['present']	['shoe_6']	0.1	0.116666818	"[(0, 0)]"	['bathroom_2']	['present']	['bathroom_2']	0.1	0.116645998	"[(0, 0)]"	['chair']	['present']	['chair']	0.9	0.91665198	"[(0, 0)]"153	postcue	flower	object	"['a', 'b']"	present	present	1	0.50602492	6.565054205	[False]	['present']	[False]	0.9	0.915001289	"[(0, 0)]"	['car_47']	['present']	['car_47']	0.1	0.100044955	"[(0, 0)]"	['chair_38']	['present']	['chair_38']	0.1	0.116606116	"[(0, 0)]"	['desert_57']	['present']	['desert_57']	0.1	0.10003821	"[(0, 0)]"	['woods_35']	['present']	['woods_35']	0.1	0.116650103	"[(0, 0)]"	['flower_54']	['present']	['flower_54']	0.1	0.11665978	"[(0, 0)]"	['coast_61']	['present']	['coast_61']	0.1	0.116654795	"[(0, 0)]"	['flower']	['present']	['flower']	0.9	0.916653739	"[(0, 0)]"154	precue	coast	scene	"['a', 'b']"	absent	absent	1	0.364124728	6.515076888	['coast']	['absent']	['coast']	0.9	0.914959941	"[(0, 0)]"	['car_10']	['absent']	['car_10']	0.1	0.100034398	"[(0, 0)]"	['flower_5']	['absent']	['flower_5']	0.1	0.116603477	"[(0, 0)]"	['desert_35']	['absent']	['desert_35']	0.1	0.100048181	"[(0, 0)]"	['woods_10']	['absent']	['woods_10']	0.1	0.116593506	"[(0, 0)]"	['chair_29']	['absent']	['chair_29']	0.1	0.116665059	"[(0, 0)]"	['bathroom_16']	['absent']	['bathroom_16']	0.1	0.10003997	"[(0, 0)]"	[False]	['absent']	[False]	0.9	0.916656379	"[(0, 0)]"155	precue	shoe	object	"['a', 'b']"	present	present	1	0.340214194	6.547844087	['shoe']	['present']	['shoe']	0.9	0.914444412	"[(0, 0)]"	['desert_39']	['present']	['desert_39']	0.1	0.116712272	"[(0, 0)]"	['bathroom_41']	['present']	['bathroom_41']	0.1	0.100040263	"[(0, 0)]"	['flower_40']	['present']	['flower_40']	0.1	0.116664179	"[(0, 0)]"	['car_48']	['present']	['car_48']	0.1	0.116654795	"[(0, 0)]"	['shoe_8']	['present']	['shoe_8']	0.1	0.116594386	"[(0, 0)]"	['coast_1']	['present']	['coast_1']	0.1	0.10003909	"[(0, 0)]"	[False]	['present']	[False]	0.9	0.916654619	"[(0, 0)]"156	nocue	FALSE	FALSE	"['a', 'b']"	absent	absent	1	0.534570819	6.564941598	[False]	['absent']	[False]	0.9	0.914885163	"[(0, 0)]"	['desert_40']	['absent']	['desert_40']	0.1	0.116696143	"[(0, 0)]"	['flower_14']	['absent']	['flower_14']	0.1	0.116655968	"[(0, 0)]"	['shoe_8']	['absent']	['shoe_8']	0.1	0.116653622	"[(0, 0)]"	['car_45']	['absent']	['car_45']	0.1	0.116607289	"[(0, 0)]"	['woods_35']	['absent']	['woods_35']	0.1	0.116609342	"[(0, 0)]"	['coast_7']	['absent']	['coast_7']	0.1	0.100079265	"[(0, 0)]"	[False]	['absent']	[False]	0.9	0.900035688	"[(0, 0)]"157	postcue	coast	scene	"['a', 'b']"	absent	absent	1	0.731053782	6.565061537	[False]	['absent']	[False]	0.9	0.91499601	"[(0, 0)]"	['chair_34']	['absent']	['chair_34']	0.1	0.116658314	"[(0, 0)]"	['flower_12']	['absent']	['flower_12']	0.1	0.100043195	"[(0, 0)]"	['desert_39']	['absent']	['desert_39']	0.1	0.116587641	"[(0, 0)]"	['woods_53']	['absent']	['woods_53']	0.1	0.100051993	"[(0, 0)]"	['bathroom_66']	['absent']	['bathroom_66']	0.1	0.11667239	"[(0, 0)]"	['shoe_4']	['absent']	['shoe_4']	0.1	0.116586175	"[(0, 0)]"	['coast']	['absent']	['coast']	0.9	0.916659311	"[(0, 0)]"158	nocue	FALSE	FALSE	"['a', 'b']"	absent	present	0	0.739603418	6.531701097	[False]	['present']	[False]	0.9	0.914918886	"[(0, 0)]"	['bathroom_4']	['present']	['bathroom_4']	0.1	0.116875611	"[(0, 0)]"	['car_31']	['present']	['car_31']	0.1	0.116421077	"[(0, 0)]"	['coast_12']	['present']	['coast_12']	0.1	0.100047887	"[(0, 0)]"	['flower_4']	['present']	['flower_4']	0.1	0.116612567	"[(0, 0)]"	['woods_3']	['present']	['woods_3']	0.1	0.100027653	"[(0, 0)]"	['chair_43']	['present']	['chair_43']	0.1	0.116831037	"[(0, 0)]"	[False]	['present']	[False]	0.9	0.916667815	"[(0, 0)]"159	precue	shoe	object	"['a', 'b']"	absent	absent	1	0.545330662	6.531540104	['shoe']	['absent']	['shoe']	0.9	0.914873433	"[(0, 0)]"	['flower_14']	['absent']	['flower_14']	0.1	0.100105657	"[(0, 0)]"	['bathroom_19']	['absent']	['bathroom_19']	0.1	0.116603183	"[(0, 0)]"	['desert_49']	['absent']	['desert_49']	0.1	0.116645704	"[(0, 0)]"	['car_17']	['absent']	['car_17']	0.1	0.100030879	"[(0, 0)]"	['chair_45']	['absent']	['chair_45']	0.1	0.116604063	"[(0, 0)]"	['woods_36']	['absent']	['woods_36']	0.1	0.100057858	"[(0, 0)]"	[False]	['absent']	[False]	0.9	0.9166511	"[(0, 0)]"160	postcue	car	object	"['a', 'b']"	absent	present	0	0.649911571	6.565143646	[False]	['present']	[False]	0.9	0.915137649	"[(0, 0)]"	['bathroom_25']	['present']	['bathroom_25']	0.1	0.100065775	"[(0, 0)]"	['chair_40']	['present']	['chair_40']	0.1	0.116607875	"[(0, 0)]"	['desert_75']	['present']	['desert_75']	0.1	0.116654795	"[(0, 0)]"	['woods_19']	['present']	['woods_19']	0.1	0.116650983	"[(0, 0)]"	['shoe_41']	['present']	['shoe_41']	0.1	0.1000039	"[(0, 0)]"	['flower_1']	['present']	['flower_1']	0.1	0.116656555	"[(0, 0)]"	['car']	['present']	['car']	0.9	0.916660484	"[(0, 0)]"161	postcue	chair	object	"['a', 'b']"	present	present	1	0.638312747	6.531852706	[False]	['present']	[False]	0.9	0.915071375	"[(0, 0)]"	['car_19']	['present']	['car_19']	0.1	0.100102431	"[(0, 0)]"	['bathroom_47']	['present']	['bathroom_47']	0.1	0.116614913	"[(0, 0)]"	['woods_27']	['present']	['woods_27']	0.1	0.10002648	"[(0, 0)]"	['chair_25']	['present']	['chair_25']	0.1	0.116654502	"[(0, 0)]"	['shoe_28']	['present']	['shoe_28']	0.1	0.116665059	"[(0, 0)]"	['desert_49']	['present']	['desert_49']	0.1	0.116597318	"[(0, 0)]"	['chair']	['present']	['chair']	0.9	0.900065893	"[(0, 0)]"162	postcue	desert	scene	"['a', 'b']"	present	absent	0	0.54938745	6.564810517	[False]	['absent']	[False]	0.9	0.914760826	"[(0, 0)]"	['car_19']	['absent']	['car_19']	0.1	0.116670044	"[(0, 0)]"	['woods_20']	['absent']	['woods_20']	0.1	0.11665978	"[(0, 0)]"	['flower_81']	['absent']	['flower_81']	0.1	0.116648637	"[(0, 0)]"	['shoe_42']	['absent']	['shoe_42']	0.1	0.116655382	"[(0, 0)]"	['desert_5']	['absent']	['desert_5']	0.1	0.116650983	"[(0, 0)]"	['bathroom_43']	['absent']	['bathroom_43']	0.1	0.116655088	"[(0, 0)]"	['desert']	['absent']	['desert']	0.9	0.916613564	"[(0, 0)]"163	postcue	flower	object	"['a', 'b']"	absent	present	0	0.587104083	6.548307125	[False]	['present']	[False]	0.9	0.914855838	"[(0, 0)]"	['bathroom_49']	['present']	['bathroom_49']	0.1	0.100002141	"[(0, 0)]"	['desert_40']	['present']	['desert_40']	0.1	0.116656848	"[(0, 0)]"	['chair_51']	['present']	['chair_51']	0.1	0.116641306	"[(0, 0)]"	['coast_1']	['present']	['coast_1']	0.1	0.116660367	"[(0, 0)]"	['shoe_40']	['present']	['shoe_40']	0.1	0.116756845	"[(0, 0)]"	['car_3']	['present']	['car_3']	0.1	0.116543654	"[(0, 0)]"	['flower']	['present']	['flower']	0.9	0.916646408	"[(0, 0)]"164	nocue	FALSE	FALSE	"['a', 'b']"	absent	absent	1	0.550684191	6.548272229	[False]	['absent']	[False]	0.9	0.914947918	"[(0, 0)]"	['car_46']	['absent']	['car_46']	0.1	0.100043782	"[(0, 0)]"	['bathroom_42']	['absent']	['bathroom_42']	0.1	0.116659194	"[(0, 0)]"	['flower_5']	['absent']	['flower_5']	0.1	0.100029999	"[(0, 0)]"	['desert_4']	['absent']	['desert_4']	0.1	0.116606409	"[(0, 0)]"	['woods_37']	['absent']	['woods_37']	0.1	0.116642185	"[(0, 0)]"	['shoe_50']	['absent']	['shoe_50']	0.1	0.116616086	"[(0, 0)]"	[False]	['absent']	[False]	0.9	0.900041553	"[(0, 0)]"165	postcue	car	object	"['a', 'b']"	absent	absent	1	1.385185187	6.58176111	[False]	['absent']	[False]	0.9	0.915051141	"[(0, 0)]"	['shoe_59']	['absent']	['shoe_59']	0.1	0.116646291	"[(0, 0)]"	['coast_10']	['absent']	['coast_10']	0.1	0.1166589	"[(0, 0)]"	['desert_78']	['absent']	['desert_78']	0.1	0.116650983	"[(0, 0)]"	['chair_3']	['absent']	['chair_3']	0.1	0.116651276	"[(0, 0)]"	['woods_16']	['absent']	['woods_16']	0.1	0.11666066	"[(0, 0)]"	['flower_57']	['absent']	['flower_57']	0.1	0.11666154	"[(0, 0)]"	['car']	['absent']	['car']	0.9	0.916659898	"[(0, 0)]"166	precue	desert	scene	"['a', 'b']"	present	absent	0	0.819074411	6.548277507	['desert']	['absent']	['desert']	0.9	0.914889268	"[(0, 0)]"	['bathroom_35']	['absent']	['bathroom_35']	0.1	0.100043782	"[(0, 0)]"	['woods_74']	['absent']	['woods_74']	0.1	0.116651863	"[(0, 0)]"	['shoe_42']	['absent']	['shoe_42']	0.1	0.116656555	"[(0, 0)]"	['desert_5']	['absent']	['desert_5']	0.1	0.116656261	"[(0, 0)]"	['flower_42']	['absent']	['flower_42']	0.1	0.116611101	"[(0, 0)]"	['chair_1']	['absent']	['chair_1']	0.1	0.100034984	"[(0, 0)]"	[False]	['absent']	[False]	0.9	0.900048884	"[(0, 0)]"167	precue	coast	scene	"['a', 'b']"	absent	absent	1	0.603513048	6.548349353	['coast']	['absent']	['coast']	0.9	0.914954956	"[(0, 0)]"	['woods_46']	['absent']	['woods_46']	0.1	0.116653036	"[(0, 0)]"	['flower_57']	['absent']	['flower_57']	0.1	0.116614327	"[(0, 0)]"	['bathroom_5']	['absent']	['bathroom_5']	0.1	0.100029706	"[(0, 0)]"	['shoe_18']	['absent']	['shoe_18']	0.1	0.1000517	"[(0, 0)]"	['desert_14']	['absent']	['desert_14']	0.1	0.116789982	"[(0, 0)]"	['chair_6']	['absent']	['chair_6']	0.1	0.116478553	"[(0, 0)]"	[False]	['absent']	[False]	0.9	0.900034222	"[(0, 0)]"168	precue	car	object	"['a', 'b']"	absent	absent	1	0.336203153	6.564633688	['car']	['absent']	['car']	0.9	0.914630037	"[(0, 0)]"	['chair_8']	['absent']	['chair_8']	0.1	0.100045835	"[(0, 0)]"	['flower_8']	['absent']	['flower_8']	0.1	0.116670337	"[(0, 0)]"	['desert_14']	['absent']	['desert_14']	0.1	0.116641306	"[(0, 0)]"	['coast_42']	['absent']	['coast_42']	0.1	0.116551865	"[(0, 0)]"	['shoe_22']	['absent']	['shoe_22']	0.1	0.100043489	"[(0, 0)]"	['bathroom_30']	['absent']	['bathroom_30']	0.1	0.116657728	"[(0, 0)]"	[False]	['absent']	[False]	0.9	0.916659018	"[(0, 0)]"169	precue	chair	object	"['a', 'b']"	absent	absent	1	0.422289519	6.565124585	['chair']	['absent']	['chair']	0.9	0.915122693	"[(0, 0)]"	['shoe_25']	['absent']	['shoe_25']	0.1	0.100099206	"[(0, 0)]"	['bathroom_18']	['absent']	['bathroom_18']	0.1	0.116654209	"[(0, 0)]"	['flower_42']	['absent']	['flower_42']	0.1	0.116668871	"[(0, 0)]"	['car_43']	['absent']	['car_43']	0.1	0.116589401	"[(0, 0)]"	['desert_7']	['absent']	['desert_7']	0.1	0.100046714	"[(0, 0)]"	['woods_42']	['absent']	['woods_42']	0.1	0.116590281	"[(0, 0)]"	[False]	['absent']	[False]	0.9	0.916659311	"[(0, 0)]"170	postcue	bathroom	scene	"['a', 'b']"	present	absent	0	0.55931007	6.548410348	[False]	['absent']	[False]	0.9	0.915022109	"[(0, 0)]"	['desert_59']	['absent']	['desert_59']	0.1	0.1000517	"[(0, 0)]"	['flower_31']	['absent']	['flower_31']	0.1	0.11665978	"[(0, 0)]"	['chair_51']	['absent']	['chair_51']	0.1	0.116650103	"[(0, 0)]"	['bathroom_39']	['absent']	['bathroom_39']	0.1	0.1166589	"[(0, 0)]"	['shoe_8']	['absent']	['shoe_8']	0.1	0.116549226	"[(0, 0)]"	['coast_13']	['absent']	['coast_13']	0.1	0.10010595	"[(0, 0)]"	['bathroom']	['absent']	['bathroom']	0.9	0.91659421	"[(0, 0)]"171	nocue	FALSE	FALSE	"['a', 'b']"	absent	absent	1	0.434662811	6.548373693	[False]	['absent']	[False]	0.9	0.915044983	"[(0, 0)]"	['woods_32']	['absent']	['woods_32']	0.1	0.100039383	"[(0, 0)]"	['chair_25']	['absent']	['chair_25']	0.1	0.116663592	"[(0, 0)]"	['bathroom_8']	['absent']	['bathroom_8']	0.1	0.116597025	"[(0, 0)]"	['car_40']	['absent']	['car_40']	0.1	0.116644531	"[(0, 0)]"	['flower_1']	['absent']	['flower_1']	0.1	0.116649517	"[(0, 0)]"	['desert_45']	['absent']	['desert_45']	0.1	0.100046714	"[(0, 0)]"	[False]	['absent']	[False]	0.9	0.916644649	"[(0, 0)]"172	nocue	FALSE	FALSE	"['a', 'b']"	absent	present	0	0.759835453	6.548364015	[False]	['present']	[False]	0.9	0.914981934	"[(0, 0)]"	['desert_3']	['present']	['desert_3']	0.1	0.100048767	"[(0, 0)]"	['bathroom_48']	['present']	['bathroom_48']	0.1	0.116599371	"[(0, 0)]"	['coast_5']	['present']	['coast_5']	0.1	0.100035571	"[(0, 0)]"	['car_4']	['present']	['car_4']	0.1	0.116599371	"[(0, 0)]"	['flower_25']	['present']	['flower_25']	0.1	0.100044955	"[(0, 0)]"	['shoe_33']	['present']	['shoe_33']	0.1	0.116596732	"[(0, 0)]"	[False]	['present']	[False]	0.9	0.916649927	"[(0, 0)]"173	precue	shoe	object	"['a', 'b']"	present	present	1	0.424780658	6.548310644	['shoe']	['present']	['shoe']	0.9	0.914982814	"[(0, 0)]"	['coast_12']	['present']	['coast_12']	0.1	0.100047301	"[(0, 0)]"	['shoe_39']	['present']	['shoe_39']	0.1	0.116641892	"[(0, 0)]"	['flower_15']	['present']	['flower_15']	0.1	0.116655675	"[(0, 0)]"	['woods_55']	['present']	['woods_55']	0.1	0.116648637	"[(0, 0)]"	['car_10']	['present']	['car_10']	0.1	0.10000566	"[(0, 0)]"	['bathroom_28']	['present']	['bathroom_28']	0.1	0.116651276	"[(0, 0)]"	[False]	['present']	[False]	0.9	0.916642009	"[(0, 0)]"174	precue	flower	object	"['a', 'b']"	absent	absent	1	0.335181478	6.548076926	['flower']	['absent']	['flower']	0.9	0.914734433	"[(0, 0)]"	['shoe_35']	['absent']	['shoe_35']	0.1	0.10003821	"[(0, 0)]"	['desert_30']	['absent']	['desert_30']	0.1	0.116643945	"[(0, 0)]"	['car_16']	['absent']	['car_16']	0.1	0.116674736	"[(0, 0)]"	['woods_3']	['absent']	['woods_3']	0.1	0.116580603	"[(0, 0)]"	['chair_38']	['absent']	['chair_38']	0.1	0.116623418	"[(0, 0)]"	['bathroom_34']	['absent']	['bathroom_34']	0.1	0.10008337	"[(0, 0)]"	[False]	['absent']	[False]	0.9	0.900015747	"[(0, 0)]"175	nocue	FALSE	FALSE	"['a', 'b']"	absent	present	0	0.475622176	6.531876459	[False]	['present']	[False]	0.9	0.915163748	"[(0, 0)]"	['woods_52']	['present']	['woods_52']	0.1	0.100048181	"[(0, 0)]"	['shoe_22']	['present']	['shoe_22']	0.1	0.116600544	"[(0, 0)]"	['car_34']	['present']	['car_34']	0.1	0.100033225	"[(0, 0)]"	['flower_31']	['present']	['flower_31']	0.1	0.116614034	"[(0, 0)]"	['coast_2']	['present']	['coast_2']	0.1	0.100037037	"[(0, 0)]"	['bathroom_20']	['present']	['bathroom_20']	0.1	0.116553918	"[(0, 0)]"	[False]	['present']	[False]	0.9	0.916654619	"[(0, 0)]"176	nocue	FALSE	FALSE	"['a', 'b']"	absent	absent	1	0.507595261	6.531651539	[False]	['absent']	[False]	0.9	0.914881351	"[(0, 0)]"	['coast_40']	['absent']	['coast_40']	0.1	0.10008425	"[(0, 0)]"	['bathroom_43']	['absent']	['bathroom_43']	0.1	0.116651569	"[(0, 0)]"	['flower_14']	['absent']	['flower_14']	0.1	0.116650983	"[(0, 0)]"	['car_32']	['absent']	['car_32']	0.1	0.116664472	"[(0, 0)]"	['desert_33']	['absent']	['desert_33']	0.1	0.116647464	"[(0, 0)]"	['shoe_15']	['absent']	['shoe_15']	0.1	0.100003607	"[(0, 0)]"	[False]	['absent']	[False]	0.9	0.900045952	"[(0, 0)]"177	doublecue	"('chair', 'woods')"	"('object', 'scene')"	"['a', 'b']"	"('present', 'present')"	absent	0	0.557676388	6.548458148	['chair']	['absent']	['chair']	0.9	0.915072841	"[(0, 0)]"	['desert_56']	['absent']	['desert_56']	0.1	0.116646291	"[(0, 0)]"	['chair_7']	['absent']	['chair_7']	0.1	0.100047008	"[(0, 0)]"	['bathroom_11']	['absent']	['bathroom_11']	0.1	0.11665069	"[(0, 0)]"	['flower_40']	['absent']	['flower_40']	0.1	0.1000039	"[(0, 0)]"	['woods_1']	['absent']	['woods_1']	0.1	0.116584122	"[(0, 0)]"	['coast_34']	['absent']	['coast_34']	0.1	0.116657434	"[(0, 0)]"	['woods']	['absent']	['woods']	0.9	0.916599195	"[(0, 0)]"178	postcue	coast	scene	"['a', 'b']"	present	absent	0	0.470552804	6.581864627	[False]	['absent']	[False]	0.9	0.915145273	"[(0, 0)]"	['shoe_48']	['absent']	['shoe_48']	0.1	0.116648344	"[(0, 0)]"	['chair_66']	['absent']	['chair_66']	0.1	0.116655088	"[(0, 0)]"	['bathroom_60']	['absent']	['bathroom_60']	0.1	0.116652742	"[(0, 0)]"	['coast_2']	['absent']	['coast_2']	0.1	0.116662713	"[(0, 0)]"	['woods_35']	['absent']	['woods_35']	0.1	0.116655675	"[(0, 0)]"	['car_59']	['absent']	['car_59']	0.1	0.116646291	"[(0, 0)]"	['coast']	['absent']	['coast']	0.9	0.900030996	"[(0, 0)]"179	postcue	bathroom	scene	"['a', 'b']"	absent	present	0	0.548127364	6.548437034	[False]	['present']	[False]	0.9	0.915040877	"[(0, 0)]"	['desert_35']	['present']	['desert_35']	0.1	0.100044075	"[(0, 0)]"	['flower_50']	['present']	['flower_50']	0.1	0.116648637	"[(0, 0)]"	['chair_26']	['present']	['chair_26']	0.1	0.116559196	"[(0, 0)]"	['coast_34']	['present']	['coast_34']	0.1	0.100098326	"[(0, 0)]"	['car_37']	['present']	['car_37']	0.1	0.116650103	"[(0, 0)]"	['woods_28']	['present']	['woods_28']	0.1	0.116597025	"[(0, 0)]"	['bathroom']	['present']	['bathroom']	0.9	0.916660777	"[(0, 0)]"180	postcue	coast	scene	"['a', 'b']"	present	present	1	0.55780395	6.548326773	[False]	['present']	[False]	0.9	0.914928563	"[(0, 0)]"	['flower_52']	['present']	['flower_52']	0.1	0.10008337	"[(0, 0)]"	['desert_34']	['present']	['desert_34']	0.1	0.116594386	"[(0, 0)]"	['coast_39']	['present']	['coast_39']	0.1	0.100044662	"[(0, 0)]"	['car_26']	['present']	['car_26']	0.1	0.116653915	"[(0, 0)]"	['woods_15']	['present']	['woods_15']	0.1	0.116652449	"[(0, 0)]"	['chair_1']	['present']	['chair_1']	0.1	0.116671803	"[(0, 0)]"	['coast']	['present']	['coast']	0.9	0.916609752	"[(0, 0)]"181	precue	bathroom	scene	"['a', 'b']"	present	present	1	0.519827793	6.565143353	['bathroom']	['present']	['bathroom']	0.9	0.915048208	"[(0, 0)]"	['shoe_69']	['present']	['shoe_69']	0.1	0.116624004	"[(0, 0)]"	['flower_51']	['present']	['flower_51']	0.1	0.100037624	"[(0, 0)]"	['desert_79']	['present']	['desert_79']	0.1	0.116653622	"[(0, 0)]"	['chair_8']	['present']	['chair_8']	0.1	0.116706993	"[(0, 0)]"	['bathroom_24']	['present']	['bathroom_24']	0.1	0.116594973	"[(0, 0)]"	['coast_9']	['present']	['coast_9']	0.1	0.116609635	"[(0, 0)]"	[False]	['present']	[False]	0.9	0.916654033	"[(0, 0)]"182	nocue	FALSE	FALSE	"['a', 'b']"	absent	present	0	0.676896513	6.565092034	[False]	['present']	[False]	0.9	0.914973137	"[(0, 0)]"	['shoe_39']	['present']	['shoe_39']	0.1	0.100029119	"[(0, 0)]"	['bathroom_52']	['present']	['bathroom_52']	0.1	0.116628109	"[(0, 0)]"	['desert_48']	['present']	['desert_48']	0.1	0.116665352	"[(0, 0)]"	['car_18']	['present']	['car_18']	0.1	0.116644825	"[(0, 0)]"	['woods_55']	['present']	['woods_55']	0.1	0.116610808	"[(0, 0)]"	['flower_50']	['present']	['flower_50']	0.1	0.116655088	"[(0, 0)]"	[False]	['present']	[False]	0.9	0.916644649	"[(0, 0)]"183	nocue	FALSE	FALSE	"['a', 'b']"	absent	present	0	0.421205089	6.841501111	[False]	['present']	[False]	0.9	0.908043695	"[(0, 0)]"	['shoe_17']	['present']	['shoe_17']	0.1	0.422347582	"[(0, 0)]"	['woods_29']	['present']	['woods_29']	0.1	0.110948782	"[(0, 0)]"	['car_33']	['present']	['car_33']	0.1	0.116656555	"[(0, 0)]"	['chair_37']	['present']	['chair_37']	0.1	0.116644238	"[(0, 0)]"	['coast_16']	['present']	['coast_16']	0.1	0.116648637	"[(0, 0)]"	['desert_35']	['present']	['desert_35']	0.1	0.11667239	"[(0, 0)]"	[False]	['present']	[False]	0.9	0.900077036	"[(0, 0)]"184	postcue	chair	object	"['a', 'b']"	present	present	1	0.569962585	6.564871805	[False]	['present']	[False]	0.9	0.914849093	"[(0, 0)]"	['shoe_2']	['present']	['shoe_2']	0.1	0.116660367	"[(0, 0)]"	['woods_48']	['present']	['woods_48']	0.1	0.116644825	"[(0, 0)]"	['car_30']	['present']	['car_30']	0.1	0.116658021	"[(0, 0)]"	['chair_26']	['present']	['chair_26']	0.1	0.100036744	"[(0, 0)]"	['coast_6']	['present']	['coast_6']	0.1	0.116596145	"[(0, 0)]"	['desert_53']	['present']	['desert_53']	0.1	0.100042902	"[(0, 0)]"	['chair']	['present']	['chair']	0.9	0.916658725	"[(0, 0)]"185	nocue	FALSE	FALSE	"['a', 'b']"	absent	present	0	0.462279115	6.58170686	[False]	['present']	[False]	0.9	0.915036772	"[(0, 0)]"	['shoe_67']	['present']	['shoe_67']	0.1	0.116668284	"[(0, 0)]"	['car_33']	['present']	['car_33']	0.1	0.116594973	"[(0, 0)]"	['woods_33']	['present']	['woods_33']	0.1	0.100032932	"[(0, 0)]"	['bathroom_36']	['present']	['bathroom_36']	0.1	0.116648637	"[(0, 0)]"	['chair_4']	['present']	['chair_4']	0.1	0.116659194	"[(0, 0)]"	['desert_23']	['present']	['desert_23']	0.1	0.116646584	"[(0, 0)]"	[False]	['present']	[False]	0.9	0.916684237	"[(0, 0)]"186	precue	chair	object	"['a', 'b']"	present	present	1	0.310351026	6.548390994	['chair']	['present']	['chair']	0.9	0.914935308	"[(0, 0)]"	['coast_37']	['present']	['coast_37']	0.1	0.100114748	"[(0, 0)]"	['woods_50']	['present']	['woods_50']	0.1	0.116655968	"[(0, 0)]"	['chair_51']	['present']	['chair_51']	0.1	0.116654795	"[(0, 0)]"	['car_48']	['present']	['car_48']	0.1	0.116650103	"[(0, 0)]"	['flower_63']	['present']	['flower_63']	0.1	0.116610515	"[(0, 0)]"	['desert_51']	['present']	['desert_51']	0.1	0.116658021	"[(0, 0)]"	[False]	['present']	[False]	0.9	0.916579548	"[(0, 0)]"187	postcue	woods	scene	"['a', 'b']"	present	absent	0	0.447763943	6.581539122	[False]	['absent']	[False]	0.9	0.914906277	"[(0, 0)]"	['shoe_30']	['absent']	['shoe_30']	0.1	0.116646291	"[(0, 0)]"	['car_23']	['absent']	['car_23']	0.1	0.116629869	"[(0, 0)]"	['woods_29']	['absent']	['woods_29']	0.1	0.116938952	"[(0, 0)]"	['bathroom_27']	['absent']	['bathroom_27']	0.1	0.116407587	"[(0, 0)]"	['chair_52']	['absent']	['chair_52']	0.1	0.116639546	"[(0, 0)]"	['desert_41']	['absent']	['desert_41']	0.1	0.116666232	"[(0, 0)]"	['woods']	['absent']	['woods']	0.9	0.900032756	"[(0, 0)]"188	precue	chair	object	"['a', 'b']"	absent	present	0	0.270840011	6.565080891	['chair']	['present']	['chair']	0.9	0.914966099	"[(0, 0)]"	['car_1']	['present']	['car_1']	0.1	0.11665978	"[(0, 0)]"	['woods_44']	['present']	['woods_44']	0.1	0.10003733	"[(0, 0)]"	['flower_48']	['present']	['flower_48']	0.1	0.116745115	"[(0, 0)]"	['coast_45']	['present']	['coast_45']	0.1	0.116555677	"[(0, 0)]"	['desert_23']	['present']	['desert_23']	0.1	0.116665352	"[(0, 0)]"	['shoe_21']	['present']	['shoe_21']	0.1	0.116654795	"[(0, 0)]"	[False]	['present']	[False]	0.9	0.900094338	"[(0, 0)]"189	precue	woods	scene	"['a', 'b']"	absent	absent	1	0.358464168	6.548053173	['woods']	['absent']	['woods']	0.9	0.914571681	"[(0, 0)]"	['flower_52']	['absent']	['flower_52']	0.1	0.116660367	"[(0, 0)]"	['coast_42']	['absent']	['coast_42']	0.1	0.116657141	"[(0, 0)]"	['shoe_42']	['absent']	['shoe_42']	0.1	0.116652156	"[(0, 0)]"	['car_61']	['absent']	['car_61']	0.1	0.116598785	"[(0, 0)]"	['desert_35']	['absent']	['desert_35']	0.1	0.100047301	"[(0, 0)]"	['bathroom_29']	['absent']	['bathroom_29']	0.1	0.116645998	"[(0, 0)]"	[False]	['absent']	[False]	0.9	0.900065306	"[(0, 0)]"190	precue	flower	object	"['a', 'b']"	present	present	1	1.190993368	6.548402724	['flower']	['present']	['flower']	0.9	0.915020057	"[(0, 0)]"	['woods_39']	['present']	['woods_39']	0.1	0.100031172	"[(0, 0)]"	['shoe_37']	['present']	['shoe_37']	0.1	0.116653329	"[(0, 0)]"	['car_55']	['present']	['car_55']	0.1	0.116611101	"[(0, 0)]"	['flower_1']	['present']	['flower_1']	0.1	0.100038797	"[(0, 0)]"	['coast_32']	['present']	['coast_32']	0.1	0.116659194	"[(0, 0)]"	['bathroom_28']	['present']	['bathroom_28']	0.1	0.116650983	"[(0, 0)]"	[False]	['present']	[False]	0.9	0.916660777	"[(0, 0)]"191	precue	woods	scene	"['a', 'b']"	present	absent	0	0.521247698	6.548397446	['woods']	['absent']	['woods']	0.9	0.915050261	"[(0, 0)]"	['car_8']	['absent']	['car_8']	0.1	0.10003997	"[(0, 0)]"	['woods_62']	['absent']	['woods_62']	0.1	0.116651276	"[(0, 0)]"	['desert_24']	['absent']	['desert_24']	0.1	0.100032638	"[(0, 0)]"	['shoe_58']	['absent']	['shoe_58']	0.1	0.116665645	"[(0, 0)]"	['bathroom_68']	['absent']	['bathroom_68']	0.1	0.116596732	"[(0, 0)]"	['chair_5']	['absent']	['chair_5']	0.1	0.116651569	"[(0, 0)]"	[False]	['absent']	[False]	0.9	0.900033049	"[(0, 0)]"192	precue	chair	object	"['a', 'b']"	present	present	1	0.501973117	6.548070768	['chair']	['present']	['chair']	0.9	0.914670799	"[(0, 0)]"	['bathroom_41']	['present']	['bathroom_41']	0.1	0.116655968	"[(0, 0)]"	['car_59']	['present']	['car_59']	0.1	0.116664179	"[(0, 0)]"	['flower_35']	['present']	['flower_35']	0.1	0.116652156	"[(0, 0)]"	['woods_76']	['present']	['woods_76']	0.1	0.116644531	"[(0, 0)]"	['chair_28']	['present']	['chair_28']	0.1	0.116654795	"[(0, 0)]"	['coast_25']	['present']	['coast_25']	0.1	0.100004487	"[(0, 0)]"	[False]	['present']	[False]	0.9	0.916585999	"[(0, 0)]"193	precue	woods	scene	"['a', 'b']"	absent	absent	1	0.474874688	6.531712534	['woods']	['absent']	['woods']	0.9	0.91499777	"[(0, 0)]"	['flower_67']	['absent']	['flower_67']	0.1	0.100001847	"[(0, 0)]"	['shoe_40']	['absent']	['shoe_40']	0.1	0.116601131	"[(0, 0)]"	['chair_80']	['absent']	['chair_80']	0.1	0.100035571	"[(0, 0)]"	['desert_6']	['absent']	['desert_6']	0.1	0.116648637	"[(0, 0)]"	['bathroom_31']	['absent']	['bathroom_31']	0.1	0.116655382	"[(0, 0)]"	['coast_58']	['absent']	['coast_58']	0.1	0.100031172	"[(0, 0)]"	[False]	['absent']	[False]	0.9	0.916656672	"[(0, 0)]"194	nocue	FALSE	FALSE	"['a', 'b']"	absent	absent	1	0.595305046	6.565119013	[False]	['absent']	[False]	0.9	0.91506639	"[(0, 0)]"	['desert_49']	['absent']	['desert_49']	0.1	0.100032345	"[(0, 0)]"	['flower_6']	['absent']	['flower_6']	0.1	0.116653329	"[(0, 0)]"	['chair_53']	['absent']	['chair_53']	0.1	0.116642479	"[(0, 0)]"	['bathroom_33']	['absent']	['bathroom_33']	0.1	0.116675909	"[(0, 0)]"	['shoe_43']	['absent']	['shoe_43']	0.1	0.11665069	"[(0, 0)]"	['coast_8']	['absent']	['coast_8']	0.1	0.116655382	"[(0, 0)]"	[False]	['absent']	[False]	0.9	0.91666195	"[(0, 0)]"195	nocue	FALSE	FALSE	"['a', 'b']"	absent	present	0	0.445356086	6.548277507	[False]	['present']	[False]	0.9	0.914831205	"[(0, 0)]"	['car_44']	['present']	['car_44']	0.1	0.100040263	"[(0, 0)]"	['woods_39']	['present']	['woods_39']	0.1	0.116652742	"[(0, 0)]"	['desert_26']	['present']	['desert_26']	0.1	0.116652742	"[(0, 0)]"	['shoe_13']	['present']	['shoe_13']	0.1	0.1166589	"[(0, 0)]"	['bathroom_10']	['present']	['bathroom_10']	0.1	0.11665069	"[(0, 0)]"	['chair_19']	['present']	['chair_19']	0.1	0.100046128	"[(0, 0)]"	[False]	['present']	[False]	0.9	0.916664296	"[(0, 0)]"196	precue	coast	scene	"['a', 'b']"	absent	absent	1	0.636194619	6.531493478	['coast']	['absent']	['coast']	0.9	0.914765811	"[(0, 0)]"	['flower_30']	['absent']	['flower_30']	0.1	0.100039676	"[(0, 0)]"	['bathroom_12']	['absent']	['bathroom_12']	0.1	0.116587348	"[(0, 0)]"	['car_22']	['absent']	['car_22']	0.1	0.116657728	"[(0, 0)]"	['chair_24']	['absent']	['chair_24']	0.1	0.116657728	"[(0, 0)]"	['woods_2']	['absent']	['woods_2']	0.1	0.100046128	"[(0, 0)]"	['desert_19']	['absent']	['desert_19']	0.1	0.116595559	"[(0, 0)]"	[False]	['absent']	[False]	0.9	0.900085247	"[(0, 0)]"197	precue	bathroom	scene	"['a', 'b']"	absent	absent	1	0.3361099	6.564801426	['bathroom']	['absent']	['bathroom']	0.9	0.914703936	"[(0, 0)]"	['desert_57']	['absent']	['desert_57']	0.1	0.116654795	"[(0, 0)]"	['flower_47']	['absent']	['flower_47']	0.1	0.116660367	"[(0, 0)]"	['chair_67']	['absent']	['chair_67']	0.1	0.116660953	"[(0, 0)]"	['coast_15']	['absent']	['coast_15']	0.1	0.11665978	"[(0, 0)]"	['car_42']	['absent']	['car_42']	0.1	0.116641306	"[(0, 0)]"	['woods_47']	['absent']	['woods_47']	0.1	0.116654795	"[(0, 0)]"	[False]	['absent']	[False]	0.9	0.916598022	"[(0, 0)]"198	postcue	bathroom	scene	"['a', 'b']"	present	present	1	0.471984439	6.531652712	[False]	['present']	[False]	0.9	0.914928857	"[(0, 0)]"	['woods_20']	['present']	['woods_20']	0.1	0.100072227	"[(0, 0)]"	['chair_34']	['present']	['chair_34']	0.1	0.116660953	"[(0, 0)]"	['bathroom_29']	['present']	['bathroom_29']	0.1	0.116654795	"[(0, 0)]"	['car_58']	['present']	['car_58']	0.1	0.100001847	"[(0, 0)]"	['flower_21']	['present']	['flower_21']	0.1	0.116596732	"[(0, 0)]"	['desert_56']	['present']	['desert_56']	0.1	0.100029706	"[(0, 0)]"	['bathroom']	['present']	['bathroom']	0.9	0.900038621	"[(0, 0)]"199	postcue	desert	scene	"['a', 'b']"	absent	absent	1	0.544169108	6.565100832	[False]	['absent']	[False]	0.9	0.915044689	"[(0, 0)]"	['shoe_15']	['absent']	['shoe_15']	0.1	0.100002727	"[(0, 0)]"	['woods_1']	['absent']	['woods_1']	0.1	0.116645411	"[(0, 0)]"	['coast_67']	['absent']	['coast_67']	0.1	0.11664893	"[(0, 0)]"	['bathroom_8']	['absent']	['bathroom_8']	0.1	0.116660953	"[(0, 0)]"	['flower_22']	['absent']	['flower_22']	0.1	0.116643652	"[(0, 0)]"	['chair_14']	['absent']	['chair_14']	0.1	0.116606409	"[(0, 0)]"	['desert']	['absent']	['desert']	0.9	0.91666283	"[(0, 0)]"200	postcue	flower	object	"['a', 'b']"	present	present	1	0.601904878	6.531670306	[False]	['present']	[False]	0.9	0.914924458	"[(0, 0)]"	['desert_24']	['present']	['desert_24']	0.1	0.100146419	"[(0, 0)]"	['chair_11']	['present']	['chair_11']	0.1	0.10009686	"[(0, 0)]"	['bathroom_27']	['present']	['bathroom_27']	0.1	0.116403482	"[(0, 0)]"	['coast_20']	['present']	['coast_20']	0.1	0.116658607	"[(0, 0)]"	['flower_5']	['present']	['flower_5']	0.1	0.116619312	"[(0, 0)]"	['shoe_47']	['present']	['shoe_47']	0.1	0.10002648	"[(0, 0)]"	['flower']	['present']	['flower']	0.9	0.900053576	"[(0, 0)]"201	postcue	desert	scene	"['a', 'b']"	present	present	1	0.677558373	6.548377798	[False]	['present']	[False]	0.9	0.914927977	"[(0, 0)]"	['car_57']	['present']	['car_57']	0.1	0.100047301	"[(0, 0)]"	['desert_43']	['present']	['desert_43']	0.1	0.116653622	"[(0, 0)]"	['coast_44']	['present']	['coast_44']	0.1	0.116650983	"[(0, 0)]"	['woods_47']	['present']	['woods_47']	0.1	0.100039676	"[(0, 0)]"	['shoe_67']	['present']	['shoe_67']	0.1	0.116604943	"[(0, 0)]"	['chair_35']	['present']	['chair_35']	0.1	0.116659194	"[(0, 0)]"	['desert']	['present']	['desert']	0.9	0.916658138	"[(0, 0)]"202	precue	desert	scene	"['a', 'b']"	absent	absent	1	0.347011968	6.531586438	['desert']	['absent']	['desert']	0.9	0.914910089	"[(0, 0)]"	['coast_2']	['absent']	['coast_2']	0.1	0.100055805	"[(0, 0)]"	['woods_15']	['absent']	['woods_15']	0.1	0.100044075	"[(0, 0)]"	['bathroom_2']	['absent']	['bathroom_2']	0.1	0.116646584	"[(0, 0)]"	['chair_20']	['absent']	['chair_20']	0.1	0.116649223	"[(0, 0)]"	['shoe_33']	['absent']	['shoe_33']	0.1	0.116601717	"[(0, 0)]"	['car_32']	['absent']	['car_32']	0.1	0.100047594	"[(0, 0)]"	[False]	['absent']	[False]	0.9	0.916600955	"[(0, 0)]"